"","subid","condition","age","gender","ethnicity","education","religionChild","job","maritalStatus","children","country","englishNative","politicalIdeology","studyMoralPhil","beliefGod","beliefAfterlife","beliefTradition","beliefLeader","comments","trialNum","leftCharacter","rightCharacter","response","rt","responseNum"
"1","S1","Morality",28,"male","black","college_bachDegree","christianity_catholic","NA","no","0","usa","yes_only","independent","no","agree_strong","agree_little","neither","agree_strong","NA",1,"green_frog","toby_chimp","both equally",9736,0
"2","S1","Morality",28,"male","black","college_bachDegree","christianity_catholic","NA","no","0","usa","yes_only","independent","no","agree_strong","agree_little","neither","agree_strong","NA",2,"you","todd_billingsley_man","much more left",3999,-2
"3","S1","Morality",28,"male","black","college_bachDegree","christianity_catholic","NA","no","0","usa","yes_only","independent","no","agree_strong","agree_little","neither","agree_strong","NA",3,"nicholas_gannon_baby","kismet_robot","slightly more left",3534,-1
"4","S1","Morality",28,"male","black","college_bachDegree","christianity_catholic","NA","no","0","usa","yes_only","independent","no","agree_strong","agree_little","neither","agree_strong","NA",4,"sharon_harvey_woman","green_frog","much more left",2135,-2
"5","S1","Morality",28,"male","black","college_bachDegree","christianity_catholic","NA","no","0","usa","yes_only","independent","no","agree_strong","agree_little","neither","agree_strong","NA",5,"samantha_hill_girl","sharon_harvey_woman","much more right",2100,2
"6","S1","Morality",28,"male","black","college_bachDegree","christianity_catholic","NA","no","0","usa","yes_only","independent","no","agree_strong","agree_little","neither","agree_strong","NA",6,"gerald_schiff_pvs","you","much more right",2836,2
"7","S1","Morality",28,"male","black","college_bachDegree","christianity_catholic","NA","no","0","usa","yes_only","independent","no","agree_strong","agree_little","neither","agree_strong","NA",7,"samantha_hill_girl","green_frog","much more left",3084,-2
"8","S1","Morality",28,"male","black","college_bachDegree","christianity_catholic","NA","no","0","usa","yes_only","independent","no","agree_strong","agree_little","neither","agree_strong","NA",8,"todd_billingsley_man","nicholas_gannon_baby","much more left",1870,-2
"9","S1","Morality",28,"male","black","college_bachDegree","christianity_catholic","NA","no","0","usa","yes_only","independent","no","agree_strong","agree_little","neither","agree_strong","NA",9,"you","kismet_robot","much more left",1606,-2
"10","S1","Morality",28,"male","black","college_bachDegree","christianity_catholic","NA","no","0","usa","yes_only","independent","no","agree_strong","agree_little","neither","agree_strong","NA",10,"charlie_dog","gerald_schiff_pvs","slightly more right",7230,1
"11","S1","Morality",28,"male","black","college_bachDegree","christianity_catholic","NA","no","0","usa","yes_only","independent","no","agree_strong","agree_little","neither","agree_strong","NA",11,"toby_chimp","todd_billingsley_man","much more right",3135,2
"12","S1","Morality",28,"male","black","college_bachDegree","christianity_catholic","NA","no","0","usa","yes_only","independent","no","agree_strong","agree_little","neither","agree_strong","NA",12,"god","samantha_hill_girl","much more left",2068,-2
"13","S1","Morality",28,"male","black","college_bachDegree","christianity_catholic","NA","no","0","usa","yes_only","independent","no","agree_strong","agree_little","neither","agree_strong","NA",13,"nicholas_gannon_baby","you","much more right",2591,2
"14","S1","Morality",28,"male","black","college_bachDegree","christianity_catholic","NA","no","0","usa","yes_only","independent","no","agree_strong","agree_little","neither","agree_strong","NA",14,"samantha_hill_girl","you","much more right",2147,2
"15","S1","Morality",28,"male","black","college_bachDegree","christianity_catholic","NA","no","0","usa","yes_only","independent","no","agree_strong","agree_little","neither","agree_strong","NA",15,"you","charlie_dog","much more left",1819,-2
"16","S1","Morality",28,"male","black","college_bachDegree","christianity_catholic","NA","no","0","usa","yes_only","independent","no","agree_strong","agree_little","neither","agree_strong","NA",16,"gerald_schiff_pvs","god","much more right",2281,2
"17","S1","Morality",28,"male","black","college_bachDegree","christianity_catholic","NA","no","0","usa","yes_only","independent","no","agree_strong","agree_little","neither","agree_strong","NA",17,"fetus","kismet_robot","both equally",5616,0
"18","S1","Morality",28,"male","black","college_bachDegree","christianity_catholic","NA","no","0","usa","yes_only","independent","no","agree_strong","agree_little","neither","agree_strong","NA",18,"god","todd_billingsley_man","much more left",2201,-2
"19","S1","Morality",28,"male","black","college_bachDegree","christianity_catholic","NA","no","0","usa","yes_only","independent","no","agree_strong","agree_little","neither","agree_strong","NA",19,"fetus","samantha_hill_girl","much more right",2293,2
"20","S1","Morality",28,"male","black","college_bachDegree","christianity_catholic","NA","no","0","usa","yes_only","independent","no","agree_strong","agree_little","neither","agree_strong","NA",20,"nicholas_gannon_baby","charlie_dog","both equally",3466,0
"21","S1","Morality",28,"male","black","college_bachDegree","christianity_catholic","NA","no","0","usa","yes_only","independent","no","agree_strong","agree_little","neither","agree_strong","NA",21,"charlie_dog","todd_billingsley_man","much more right",2294,2
"22","S1","Morality",28,"male","black","college_bachDegree","christianity_catholic","NA","no","0","usa","yes_only","independent","no","agree_strong","agree_little","neither","agree_strong","NA",22,"god","toby_chimp","much more left",2093,-2
"23","S1","Morality",28,"male","black","college_bachDegree","christianity_catholic","NA","no","0","usa","yes_only","independent","no","agree_strong","agree_little","neither","agree_strong","NA",23,"charlie_dog","god","much more right",2255,2
"24","S1","Morality",28,"male","black","college_bachDegree","christianity_catholic","NA","no","0","usa","yes_only","independent","no","agree_strong","agree_little","neither","agree_strong","NA",24,"samantha_hill_girl","kismet_robot","much more left",1813,-2
"25","S1","Morality",28,"male","black","college_bachDegree","christianity_catholic","NA","no","0","usa","yes_only","independent","no","agree_strong","agree_little","neither","agree_strong","NA",25,"delores_gleitman_deceased","samantha_hill_girl","much more right",2383,2
"26","S1","Morality",28,"male","black","college_bachDegree","christianity_catholic","NA","no","0","usa","yes_only","independent","no","agree_strong","agree_little","neither","agree_strong","NA",26,"sharon_harvey_woman","kismet_robot","much more left",2036,-2
"27","S1","Morality",28,"male","black","college_bachDegree","christianity_catholic","NA","no","0","usa","yes_only","independent","no","agree_strong","agree_little","neither","agree_strong","NA",27,"fetus","green_frog","both equally",2547,0
"28","S1","Morality",28,"male","black","college_bachDegree","christianity_catholic","NA","no","0","usa","yes_only","independent","no","agree_strong","agree_little","neither","agree_strong","NA",28,"kismet_robot","green_frog","both equally",2394,0
"29","S1","Morality",28,"male","black","college_bachDegree","christianity_catholic","NA","no","0","usa","yes_only","independent","no","agree_strong","agree_little","neither","agree_strong","NA",29,"gerald_schiff_pvs","sharon_harvey_woman","much more right",2364,2
"30","S1","Morality",28,"male","black","college_bachDegree","christianity_catholic","NA","no","0","usa","yes_only","independent","no","agree_strong","agree_little","neither","agree_strong","NA",30,"delores_gleitman_deceased","sharon_harvey_woman","much more right",2269,2
"31","S1","Morality",28,"male","black","college_bachDegree","christianity_catholic","NA","no","0","usa","yes_only","independent","no","agree_strong","agree_little","neither","agree_strong","NA",31,"fetus","gerald_schiff_pvs","both equally",2266,0
"32","S1","Morality",28,"male","black","college_bachDegree","christianity_catholic","NA","no","0","usa","yes_only","independent","no","agree_strong","agree_little","neither","agree_strong","NA",32,"charlie_dog","toby_chimp","both equally",2468,0
"33","S1","Morality",28,"male","black","college_bachDegree","christianity_catholic","NA","no","0","usa","yes_only","independent","no","agree_strong","agree_little","neither","agree_strong","NA",33,"charlie_dog","kismet_robot","both equally",1498,0
"34","S1","Morality",28,"male","black","college_bachDegree","christianity_catholic","NA","no","0","usa","yes_only","independent","no","agree_strong","agree_little","neither","agree_strong","NA",34,"kismet_robot","god","much more right",1709,2
"35","S1","Morality",28,"male","black","college_bachDegree","christianity_catholic","NA","no","0","usa","yes_only","independent","no","agree_strong","agree_little","neither","agree_strong","NA",35,"nicholas_gannon_baby","gerald_schiff_pvs","slightly more right",3064,1
"36","S1","Morality",28,"male","black","college_bachDegree","christianity_catholic","NA","no","0","usa","yes_only","independent","no","agree_strong","agree_little","neither","agree_strong","NA",36,"todd_billingsley_man","delores_gleitman_deceased","much more left",1882,-2
"37","S1","Morality",28,"male","black","college_bachDegree","christianity_catholic","NA","no","0","usa","yes_only","independent","no","agree_strong","agree_little","neither","agree_strong","NA",37,"god","green_frog","much more left",2236,-2
"38","S1","Morality",28,"male","black","college_bachDegree","christianity_catholic","NA","no","0","usa","yes_only","independent","no","agree_strong","agree_little","neither","agree_strong","NA",38,"god","delores_gleitman_deceased","much more left",2600,-2
"39","S1","Morality",28,"male","black","college_bachDegree","christianity_catholic","NA","no","0","usa","yes_only","independent","no","agree_strong","agree_little","neither","agree_strong","NA",39,"you","green_frog","much more left",1483,-2
"40","S1","Morality",28,"male","black","college_bachDegree","christianity_catholic","NA","no","0","usa","yes_only","independent","no","agree_strong","agree_little","neither","agree_strong","NA",40,"nicholas_gannon_baby","toby_chimp","both equally",1816,0
"41","S1","Morality",28,"male","black","college_bachDegree","christianity_catholic","NA","no","0","usa","yes_only","independent","no","agree_strong","agree_little","neither","agree_strong","NA",41,"nicholas_gannon_baby","god","both equally",1659,0
"42","S1","Morality",28,"male","black","college_bachDegree","christianity_catholic","NA","no","0","usa","yes_only","independent","no","agree_strong","agree_little","neither","agree_strong","NA",42,"toby_chimp","samantha_hill_girl","much more right",4170,2
"43","S1","Morality",28,"male","black","college_bachDegree","christianity_catholic","NA","no","0","usa","yes_only","independent","no","agree_strong","agree_little","neither","agree_strong","NA",43,"nicholas_gannon_baby","green_frog","both equally",2321,0
"44","S1","Morality",28,"male","black","college_bachDegree","christianity_catholic","NA","no","0","usa","yes_only","independent","no","agree_strong","agree_little","neither","agree_strong","NA",44,"gerald_schiff_pvs","green_frog","slightly more left",3168,-1
"45","S1","Morality",28,"male","black","college_bachDegree","christianity_catholic","NA","no","0","usa","yes_only","independent","no","agree_strong","agree_little","neither","agree_strong","NA",45,"delores_gleitman_deceased","nicholas_gannon_baby","slightly more right",2914,1
"46","S1","Morality",28,"male","black","college_bachDegree","christianity_catholic","NA","no","0","usa","yes_only","independent","no","agree_strong","agree_little","neither","agree_strong","NA",46,"samantha_hill_girl","nicholas_gannon_baby","much more left",3016,-2
"47","S1","Morality",28,"male","black","college_bachDegree","christianity_catholic","NA","no","0","usa","yes_only","independent","no","agree_strong","agree_little","neither","agree_strong","NA",47,"you","fetus","much more left",1887,-2
"48","S1","Morality",28,"male","black","college_bachDegree","christianity_catholic","NA","no","0","usa","yes_only","independent","no","agree_strong","agree_little","neither","agree_strong","NA",48,"nicholas_gannon_baby","fetus","slightly more left",3655,-1
"49","S1","Morality",28,"male","black","college_bachDegree","christianity_catholic","NA","no","0","usa","yes_only","independent","no","agree_strong","agree_little","neither","agree_strong","NA",49,"sharon_harvey_woman","god","much more left",1749,-2
"50","S1","Morality",28,"male","black","college_bachDegree","christianity_catholic","NA","no","0","usa","yes_only","independent","no","agree_strong","agree_little","neither","agree_strong","NA",50,"delores_gleitman_deceased","charlie_dog","slightly more right",12535,1
"51","S1","Morality",28,"male","black","college_bachDegree","christianity_catholic","NA","no","0","usa","yes_only","independent","no","agree_strong","agree_little","neither","agree_strong","NA",51,"gerald_schiff_pvs","toby_chimp","slightly more left",2333,-1
"52","S1","Morality",28,"male","black","college_bachDegree","christianity_catholic","NA","no","0","usa","yes_only","independent","no","agree_strong","agree_little","neither","agree_strong","NA",52,"green_frog","charlie_dog","slightly more right",2414,1
"53","S1","Morality",28,"male","black","college_bachDegree","christianity_catholic","NA","no","0","usa","yes_only","independent","no","agree_strong","agree_little","neither","agree_strong","NA",53,"todd_billingsley_man","fetus","much more left",1884,-2
"54","S1","Morality",28,"male","black","college_bachDegree","christianity_catholic","NA","no","0","usa","yes_only","independent","no","agree_strong","agree_little","neither","agree_strong","NA",54,"charlie_dog","sharon_harvey_woman","much more right",2348,2
"55","S1","Morality",28,"male","black","college_bachDegree","christianity_catholic","NA","no","0","usa","yes_only","independent","no","agree_strong","agree_little","neither","agree_strong","NA",55,"you","delores_gleitman_deceased","much more left",2572,-2
"56","S1","Morality",28,"male","black","college_bachDegree","christianity_catholic","NA","no","0","usa","yes_only","independent","no","agree_strong","agree_little","neither","agree_strong","NA",56,"samantha_hill_girl","gerald_schiff_pvs","slightly more left",3075,-1
"57","S1","Morality",28,"male","black","college_bachDegree","christianity_catholic","NA","no","0","usa","yes_only","independent","no","agree_strong","agree_little","neither","agree_strong","NA",57,"charlie_dog","fetus","both equally",2366,0
"58","S1","Morality",28,"male","black","college_bachDegree","christianity_catholic","NA","no","0","usa","yes_only","independent","no","agree_strong","agree_little","neither","agree_strong","NA",58,"green_frog","delores_gleitman_deceased","both equally",2402,0
"59","S1","Morality",28,"male","black","college_bachDegree","christianity_catholic","NA","no","0","usa","yes_only","independent","no","agree_strong","agree_little","neither","agree_strong","NA",59,"fetus","god","much more right",1783,2
"60","S1","Morality",28,"male","black","college_bachDegree","christianity_catholic","NA","no","0","usa","yes_only","independent","no","agree_strong","agree_little","neither","agree_strong","NA",60,"toby_chimp","you","much more right",1732,2
"61","S1","Morality",28,"male","black","college_bachDegree","christianity_catholic","NA","no","0","usa","yes_only","independent","no","agree_strong","agree_little","neither","agree_strong","NA",61,"you","god","much more right",2348,2
"62","S1","Morality",28,"male","black","college_bachDegree","christianity_catholic","NA","no","0","usa","yes_only","independent","no","agree_strong","agree_little","neither","agree_strong","NA",62,"sharon_harvey_woman","nicholas_gannon_baby","much more left",6285,-2
"63","S1","Morality",28,"male","black","college_bachDegree","christianity_catholic","NA","no","0","usa","yes_only","independent","no","agree_strong","agree_little","neither","agree_strong","NA",63,"kismet_robot","toby_chimp","both equally",1833,0
"64","S1","Morality",28,"male","black","college_bachDegree","christianity_catholic","NA","no","0","usa","yes_only","independent","no","agree_strong","agree_little","neither","agree_strong","NA",64,"fetus","delores_gleitman_deceased","both equally",2150,0
"65","S1","Morality",28,"male","black","college_bachDegree","christianity_catholic","NA","no","0","usa","yes_only","independent","no","agree_strong","agree_little","neither","agree_strong","NA",65,"you","sharon_harvey_woman","much more left",2162,-2
"66","S1","Morality",28,"male","black","college_bachDegree","christianity_catholic","NA","no","0","usa","yes_only","independent","no","agree_strong","agree_little","neither","agree_strong","NA",66,"kismet_robot","gerald_schiff_pvs","both equally",1913,0
"67","S1","Morality",28,"male","black","college_bachDegree","christianity_catholic","NA","no","0","usa","yes_only","independent","no","agree_strong","agree_little","neither","agree_strong","NA",67,"todd_billingsley_man","gerald_schiff_pvs","much more left",2414,-2
"68","S1","Morality",28,"male","black","college_bachDegree","christianity_catholic","NA","no","0","usa","yes_only","independent","no","agree_strong","agree_little","neither","agree_strong","NA",68,"green_frog","todd_billingsley_man","much more right",1385,2
"69","S1","Morality",28,"male","black","college_bachDegree","christianity_catholic","NA","no","0","usa","yes_only","independent","no","agree_strong","agree_little","neither","agree_strong","NA",69,"todd_billingsley_man","samantha_hill_girl","much more left",1950,-2
"70","S1","Morality",28,"male","black","college_bachDegree","christianity_catholic","NA","no","0","usa","yes_only","independent","no","agree_strong","agree_little","neither","agree_strong","NA",70,"delores_gleitman_deceased","gerald_schiff_pvs","slightly more right",3169,1
"71","S1","Morality",28,"male","black","college_bachDegree","christianity_catholic","NA","no","0","usa","yes_only","independent","no","agree_strong","agree_little","neither","agree_strong","NA",71,"toby_chimp","sharon_harvey_woman","much more right",1871,2
"72","S1","Morality",28,"male","black","college_bachDegree","christianity_catholic","NA","no","0","usa","yes_only","independent","no","agree_strong","agree_little","neither","agree_strong","NA",72,"kismet_robot","delores_gleitman_deceased","both equally",3128,0
"73","S1","Morality",28,"male","black","college_bachDegree","christianity_catholic","NA","no","0","usa","yes_only","independent","no","agree_strong","agree_little","neither","agree_strong","NA",73,"todd_billingsley_man","sharon_harvey_woman","much more left",5849,-2
"74","S1","Morality",28,"male","black","college_bachDegree","christianity_catholic","NA","no","0","usa","yes_only","independent","no","agree_strong","agree_little","neither","agree_strong","NA",74,"delores_gleitman_deceased","toby_chimp","both equally",2524,0
"75","S1","Morality",28,"male","black","college_bachDegree","christianity_catholic","NA","no","0","usa","yes_only","independent","no","agree_strong","agree_little","neither","agree_strong","NA",75,"samantha_hill_girl","charlie_dog","much more left",3197,-2
"76","S1","Morality",28,"male","black","college_bachDegree","christianity_catholic","NA","no","0","usa","yes_only","independent","no","agree_strong","agree_little","neither","agree_strong","NA",76,"todd_billingsley_man","kismet_robot","much more left",21103,-2
"77","S1","Morality",28,"male","black","college_bachDegree","christianity_catholic","NA","no","0","usa","yes_only","independent","no","agree_strong","agree_little","neither","agree_strong","NA",77,"fetus","toby_chimp","both equally",2067,0
"78","S1","Morality",28,"male","black","college_bachDegree","christianity_catholic","NA","no","0","usa","yes_only","independent","no","agree_strong","agree_little","neither","agree_strong","NA",78,"fetus","sharon_harvey_woman","much more right",2122,2
"79","S2","Hunger",31,"male","white","college_assocDegree","christianity_catholic","Salesman","no_commited","2","America","yes_only","democrat","no","agree_moderate","disagree_strong","agree_strong","agree_moderate","Good engaging study enjoyed it and much and thanks in advance keep up the work ",1,"sharon_harvey_woman","fetus","much more left",4151,-2
"80","S2","Hunger",31,"male","white","college_assocDegree","christianity_catholic","Salesman","no_commited","2","America","yes_only","democrat","no","agree_moderate","disagree_strong","agree_strong","agree_moderate","Good engaging study enjoyed it and much and thanks in advance keep up the work ",2,"sharon_harvey_woman","charlie_dog","both equally",2082,0
"81","S2","Hunger",31,"male","white","college_assocDegree","christianity_catholic","Salesman","no_commited","2","America","yes_only","democrat","no","agree_moderate","disagree_strong","agree_strong","agree_moderate","Good engaging study enjoyed it and much and thanks in advance keep up the work ",3,"sharon_harvey_woman","delores_gleitman_deceased","much more left",2252,-2
"82","S2","Hunger",31,"male","white","college_assocDegree","christianity_catholic","Salesman","no_commited","2","America","yes_only","democrat","no","agree_moderate","disagree_strong","agree_strong","agree_moderate","Good engaging study enjoyed it and much and thanks in advance keep up the work ",4,"samantha_hill_girl","todd_billingsley_man","both equally",2144,0
"83","S2","Hunger",31,"male","white","college_assocDegree","christianity_catholic","Salesman","no_commited","2","America","yes_only","democrat","no","agree_moderate","disagree_strong","agree_strong","agree_moderate","Good engaging study enjoyed it and much and thanks in advance keep up the work ",5,"nicholas_gannon_baby","delores_gleitman_deceased","much more left",2016,-2
"84","S2","Hunger",31,"male","white","college_assocDegree","christianity_catholic","Salesman","no_commited","2","America","yes_only","democrat","no","agree_moderate","disagree_strong","agree_strong","agree_moderate","Good engaging study enjoyed it and much and thanks in advance keep up the work ",6,"sharon_harvey_woman","gerald_schiff_pvs","much more left",3176,-2
"85","S2","Hunger",31,"male","white","college_assocDegree","christianity_catholic","Salesman","no_commited","2","America","yes_only","democrat","no","agree_moderate","disagree_strong","agree_strong","agree_moderate","Good engaging study enjoyed it and much and thanks in advance keep up the work ",7,"kismet_robot","god","slightly more left",4797,-1
"86","S2","Hunger",31,"male","white","college_assocDegree","christianity_catholic","Salesman","no_commited","2","America","yes_only","democrat","no","agree_moderate","disagree_strong","agree_strong","agree_moderate","Good engaging study enjoyed it and much and thanks in advance keep up the work ",8,"delores_gleitman_deceased","god","both equally",1874,0
"87","S2","Hunger",31,"male","white","college_assocDegree","christianity_catholic","Salesman","no_commited","2","America","yes_only","democrat","no","agree_moderate","disagree_strong","agree_strong","agree_moderate","Good engaging study enjoyed it and much and thanks in advance keep up the work ",9,"samantha_hill_girl","green_frog","both equally",1894,0
"88","S2","Hunger",31,"male","white","college_assocDegree","christianity_catholic","Salesman","no_commited","2","America","yes_only","democrat","no","agree_moderate","disagree_strong","agree_strong","agree_moderate","Good engaging study enjoyed it and much and thanks in advance keep up the work ",10,"nicholas_gannon_baby","toby_chimp","both equally",2181,0
"89","S2","Hunger",31,"male","white","college_assocDegree","christianity_catholic","Salesman","no_commited","2","America","yes_only","democrat","no","agree_moderate","disagree_strong","agree_strong","agree_moderate","Good engaging study enjoyed it and much and thanks in advance keep up the work ",11,"todd_billingsley_man","god","much more left",1571,-2
"90","S2","Hunger",31,"male","white","college_assocDegree","christianity_catholic","Salesman","no_commited","2","America","yes_only","democrat","no","agree_moderate","disagree_strong","agree_strong","agree_moderate","Good engaging study enjoyed it and much and thanks in advance keep up the work ",12,"toby_chimp","todd_billingsley_man","much more right",1508,2
"91","S2","Hunger",31,"male","white","college_assocDegree","christianity_catholic","Salesman","no_commited","2","America","yes_only","democrat","no","agree_moderate","disagree_strong","agree_strong","agree_moderate","Good engaging study enjoyed it and much and thanks in advance keep up the work ",13,"todd_billingsley_man","green_frog","slightly more left",1768,-1
"92","S2","Hunger",31,"male","white","college_assocDegree","christianity_catholic","Salesman","no_commited","2","America","yes_only","democrat","no","agree_moderate","disagree_strong","agree_strong","agree_moderate","Good engaging study enjoyed it and much and thanks in advance keep up the work ",14,"gerald_schiff_pvs","nicholas_gannon_baby","slightly more left",2035,-1
"93","S2","Hunger",31,"male","white","college_assocDegree","christianity_catholic","Salesman","no_commited","2","America","yes_only","democrat","no","agree_moderate","disagree_strong","agree_strong","agree_moderate","Good engaging study enjoyed it and much and thanks in advance keep up the work ",15,"todd_billingsley_man","you","slightly more left",1346,-1
"94","S2","Hunger",31,"male","white","college_assocDegree","christianity_catholic","Salesman","no_commited","2","America","yes_only","democrat","no","agree_moderate","disagree_strong","agree_strong","agree_moderate","Good engaging study enjoyed it and much and thanks in advance keep up the work ",16,"sharon_harvey_woman","you","much more left",1403,-2
"95","S2","Hunger",31,"male","white","college_assocDegree","christianity_catholic","Salesman","no_commited","2","America","yes_only","democrat","no","agree_moderate","disagree_strong","agree_strong","agree_moderate","Good engaging study enjoyed it and much and thanks in advance keep up the work ",17,"fetus","samantha_hill_girl","slightly more right",4892,1
"96","S2","Hunger",31,"male","white","college_assocDegree","christianity_catholic","Salesman","no_commited","2","America","yes_only","democrat","no","agree_moderate","disagree_strong","agree_strong","agree_moderate","Good engaging study enjoyed it and much and thanks in advance keep up the work ",18,"god","sharon_harvey_woman","much more right",1256,2
"97","S2","Hunger",31,"male","white","college_assocDegree","christianity_catholic","Salesman","no_commited","2","America","yes_only","democrat","no","agree_moderate","disagree_strong","agree_strong","agree_moderate","Good engaging study enjoyed it and much and thanks in advance keep up the work ",19,"toby_chimp","green_frog","both equally",2115,0
"98","S2","Hunger",31,"male","white","college_assocDegree","christianity_catholic","Salesman","no_commited","2","America","yes_only","democrat","no","agree_moderate","disagree_strong","agree_strong","agree_moderate","Good engaging study enjoyed it and much and thanks in advance keep up the work ",20,"fetus","toby_chimp","slightly more left",1644,-1
"99","S2","Hunger",31,"male","white","college_assocDegree","christianity_catholic","Salesman","no_commited","2","America","yes_only","democrat","no","agree_moderate","disagree_strong","agree_strong","agree_moderate","Good engaging study enjoyed it and much and thanks in advance keep up the work ",21,"fetus","god","much more left",1355,-2
"100","S2","Hunger",31,"male","white","college_assocDegree","christianity_catholic","Salesman","no_commited","2","America","yes_only","democrat","no","agree_moderate","disagree_strong","agree_strong","agree_moderate","Good engaging study enjoyed it and much and thanks in advance keep up the work ",22,"you","kismet_robot","much more right",1504,2
"101","S2","Hunger",31,"male","white","college_assocDegree","christianity_catholic","Salesman","no_commited","2","America","yes_only","democrat","no","agree_moderate","disagree_strong","agree_strong","agree_moderate","Good engaging study enjoyed it and much and thanks in advance keep up the work ",23,"you","charlie_dog","much more right",5146,2
"102","S2","Hunger",31,"male","white","college_assocDegree","christianity_catholic","Salesman","no_commited","2","America","yes_only","democrat","no","agree_moderate","disagree_strong","agree_strong","agree_moderate","Good engaging study enjoyed it and much and thanks in advance keep up the work ",24,"nicholas_gannon_baby","god","much more left",1178,-2
"103","S2","Hunger",31,"male","white","college_assocDegree","christianity_catholic","Salesman","no_commited","2","America","yes_only","democrat","no","agree_moderate","disagree_strong","agree_strong","agree_moderate","Good engaging study enjoyed it and much and thanks in advance keep up the work ",25,"god","gerald_schiff_pvs","slightly more right",1979,1
"104","S2","Hunger",31,"male","white","college_assocDegree","christianity_catholic","Salesman","no_commited","2","America","yes_only","democrat","no","agree_moderate","disagree_strong","agree_strong","agree_moderate","Good engaging study enjoyed it and much and thanks in advance keep up the work ",26,"charlie_dog","green_frog","both equally",1556,0
"105","S2","Hunger",31,"male","white","college_assocDegree","christianity_catholic","Salesman","no_commited","2","America","yes_only","democrat","no","agree_moderate","disagree_strong","agree_strong","agree_moderate","Good engaging study enjoyed it and much and thanks in advance keep up the work ",27,"kismet_robot","gerald_schiff_pvs","slightly more right",1259,1
"106","S2","Hunger",31,"male","white","college_assocDegree","christianity_catholic","Salesman","no_commited","2","America","yes_only","democrat","no","agree_moderate","disagree_strong","agree_strong","agree_moderate","Good engaging study enjoyed it and much and thanks in advance keep up the work ",28,"delores_gleitman_deceased","toby_chimp","much more right",1872,2
"107","S2","Hunger",31,"male","white","college_assocDegree","christianity_catholic","Salesman","no_commited","2","America","yes_only","democrat","no","agree_moderate","disagree_strong","agree_strong","agree_moderate","Good engaging study enjoyed it and much and thanks in advance keep up the work ",29,"charlie_dog","toby_chimp","both equally",1507,0
"108","S2","Hunger",31,"male","white","college_assocDegree","christianity_catholic","Salesman","no_commited","2","America","yes_only","democrat","no","agree_moderate","disagree_strong","agree_strong","agree_moderate","Good engaging study enjoyed it and much and thanks in advance keep up the work ",30,"samantha_hill_girl","delores_gleitman_deceased","much more left",1451,-2
"109","S2","Hunger",31,"male","white","college_assocDegree","christianity_catholic","Salesman","no_commited","2","America","yes_only","democrat","no","agree_moderate","disagree_strong","agree_strong","agree_moderate","Good engaging study enjoyed it and much and thanks in advance keep up the work ",31,"fetus","green_frog","slightly more left",1660,-1
"110","S2","Hunger",31,"male","white","college_assocDegree","christianity_catholic","Salesman","no_commited","2","America","yes_only","democrat","no","agree_moderate","disagree_strong","agree_strong","agree_moderate","Good engaging study enjoyed it and much and thanks in advance keep up the work ",32,"todd_billingsley_man","gerald_schiff_pvs","slightly more left",1968,-1
"111","S2","Hunger",31,"male","white","college_assocDegree","christianity_catholic","Salesman","no_commited","2","America","yes_only","democrat","no","agree_moderate","disagree_strong","agree_strong","agree_moderate","Good engaging study enjoyed it and much and thanks in advance keep up the work ",33,"kismet_robot","sharon_harvey_woman","much more right",1204,2
"112","S2","Hunger",31,"male","white","college_assocDegree","christianity_catholic","Salesman","no_commited","2","America","yes_only","democrat","no","agree_moderate","disagree_strong","agree_strong","agree_moderate","Good engaging study enjoyed it and much and thanks in advance keep up the work ",34,"god","you","both equally",1313,0
"113","S2","Hunger",31,"male","white","college_assocDegree","christianity_catholic","Salesman","no_commited","2","America","yes_only","democrat","no","agree_moderate","disagree_strong","agree_strong","agree_moderate","Good engaging study enjoyed it and much and thanks in advance keep up the work ",35,"nicholas_gannon_baby","green_frog","slightly more left",1408,-1
"114","S2","Hunger",31,"male","white","college_assocDegree","christianity_catholic","Salesman","no_commited","2","America","yes_only","democrat","no","agree_moderate","disagree_strong","agree_strong","agree_moderate","Good engaging study enjoyed it and much and thanks in advance keep up the work ",36,"delores_gleitman_deceased","todd_billingsley_man","much more right",1397,2
"115","S2","Hunger",31,"male","white","college_assocDegree","christianity_catholic","Salesman","no_commited","2","America","yes_only","democrat","no","agree_moderate","disagree_strong","agree_strong","agree_moderate","Good engaging study enjoyed it and much and thanks in advance keep up the work ",37,"green_frog","sharon_harvey_woman","much more right",1310,2
"116","S2","Hunger",31,"male","white","college_assocDegree","christianity_catholic","Salesman","no_commited","2","America","yes_only","democrat","no","agree_moderate","disagree_strong","agree_strong","agree_moderate","Good engaging study enjoyed it and much and thanks in advance keep up the work ",38,"samantha_hill_girl","god","much more left",1154,-2
"117","S2","Hunger",31,"male","white","college_assocDegree","christianity_catholic","Salesman","no_commited","2","America","yes_only","democrat","no","agree_moderate","disagree_strong","agree_strong","agree_moderate","Good engaging study enjoyed it and much and thanks in advance keep up the work ",39,"delores_gleitman_deceased","green_frog","much more right",1834,2
"118","S2","Hunger",31,"male","white","college_assocDegree","christianity_catholic","Salesman","no_commited","2","America","yes_only","democrat","no","agree_moderate","disagree_strong","agree_strong","agree_moderate","Good engaging study enjoyed it and much and thanks in advance keep up the work ",40,"you","toby_chimp","much more right",879,2
"119","S2","Hunger",31,"male","white","college_assocDegree","christianity_catholic","Salesman","no_commited","2","America","yes_only","democrat","no","agree_moderate","disagree_strong","agree_strong","agree_moderate","Good engaging study enjoyed it and much and thanks in advance keep up the work ",41,"samantha_hill_girl","gerald_schiff_pvs","slightly more left",1236,-1
"120","S2","Hunger",31,"male","white","college_assocDegree","christianity_catholic","Salesman","no_commited","2","America","yes_only","democrat","no","agree_moderate","disagree_strong","agree_strong","agree_moderate","Good engaging study enjoyed it and much and thanks in advance keep up the work ",42,"nicholas_gannon_baby","samantha_hill_girl","both equally",1900,0
"121","S2","Hunger",31,"male","white","college_assocDegree","christianity_catholic","Salesman","no_commited","2","America","yes_only","democrat","no","agree_moderate","disagree_strong","agree_strong","agree_moderate","Good engaging study enjoyed it and much and thanks in advance keep up the work ",43,"green_frog","god","slightly more left",1237,-1
"122","S2","Hunger",31,"male","white","college_assocDegree","christianity_catholic","Salesman","no_commited","2","America","yes_only","democrat","no","agree_moderate","disagree_strong","agree_strong","agree_moderate","Good engaging study enjoyed it and much and thanks in advance keep up the work ",44,"charlie_dog","kismet_robot","slightly more left",1451,-1
"123","S2","Hunger",31,"male","white","college_assocDegree","christianity_catholic","Salesman","no_commited","2","America","yes_only","democrat","no","agree_moderate","disagree_strong","agree_strong","agree_moderate","Good engaging study enjoyed it and much and thanks in advance keep up the work ",45,"nicholas_gannon_baby","sharon_harvey_woman","much more right",1796,2
"124","S2","Hunger",31,"male","white","college_assocDegree","christianity_catholic","Salesman","no_commited","2","America","yes_only","democrat","no","agree_moderate","disagree_strong","agree_strong","agree_moderate","Good engaging study enjoyed it and much and thanks in advance keep up the work ",46,"fetus","nicholas_gannon_baby","much more right",2224,2
"125","S2","Hunger",31,"male","white","college_assocDegree","christianity_catholic","Salesman","no_commited","2","America","yes_only","democrat","no","agree_moderate","disagree_strong","agree_strong","agree_moderate","Good engaging study enjoyed it and much and thanks in advance keep up the work ",47,"you","nicholas_gannon_baby","slightly more right",5411,1
"126","S2","Hunger",31,"male","white","college_assocDegree","christianity_catholic","Salesman","no_commited","2","America","yes_only","democrat","no","agree_moderate","disagree_strong","agree_strong","agree_moderate","Good engaging study enjoyed it and much and thanks in advance keep up the work ",48,"fetus","charlie_dog","both equally",1979,0
"127","S2","Hunger",31,"male","white","college_assocDegree","christianity_catholic","Salesman","no_commited","2","America","yes_only","democrat","no","agree_moderate","disagree_strong","agree_strong","agree_moderate","Good engaging study enjoyed it and much and thanks in advance keep up the work ",49,"todd_billingsley_man","sharon_harvey_woman","slightly more right",3354,1
"128","S2","Hunger",31,"male","white","college_assocDegree","christianity_catholic","Salesman","no_commited","2","America","yes_only","democrat","no","agree_moderate","disagree_strong","agree_strong","agree_moderate","Good engaging study enjoyed it and much and thanks in advance keep up the work ",50,"charlie_dog","gerald_schiff_pvs","much more right",2820,2
"129","S2","Hunger",31,"male","white","college_assocDegree","christianity_catholic","Salesman","no_commited","2","America","yes_only","democrat","no","agree_moderate","disagree_strong","agree_strong","agree_moderate","Good engaging study enjoyed it and much and thanks in advance keep up the work ",51,"gerald_schiff_pvs","you","slightly more left",2798,-1
"130","S2","Hunger",31,"male","white","college_assocDegree","christianity_catholic","Salesman","no_commited","2","America","yes_only","democrat","no","agree_moderate","disagree_strong","agree_strong","agree_moderate","Good engaging study enjoyed it and much and thanks in advance keep up the work ",52,"green_frog","gerald_schiff_pvs","slightly more right",2563,1
"131","S2","Hunger",31,"male","white","college_assocDegree","christianity_catholic","Salesman","no_commited","2","America","yes_only","democrat","no","agree_moderate","disagree_strong","agree_strong","agree_moderate","Good engaging study enjoyed it and much and thanks in advance keep up the work ",53,"god","toby_chimp","much more right",1196,2
"132","S2","Hunger",31,"male","white","college_assocDegree","christianity_catholic","Salesman","no_commited","2","America","yes_only","democrat","no","agree_moderate","disagree_strong","agree_strong","agree_moderate","Good engaging study enjoyed it and much and thanks in advance keep up the work ",54,"you","delores_gleitman_deceased","both equally",1386,0
"133","S2","Hunger",31,"male","white","college_assocDegree","christianity_catholic","Salesman","no_commited","2","America","yes_only","democrat","no","agree_moderate","disagree_strong","agree_strong","agree_moderate","Good engaging study enjoyed it and much and thanks in advance keep up the work ",55,"charlie_dog","samantha_hill_girl","slightly more right",1541,1
"134","S2","Hunger",31,"male","white","college_assocDegree","christianity_catholic","Salesman","no_commited","2","America","yes_only","democrat","no","agree_moderate","disagree_strong","agree_strong","agree_moderate","Good engaging study enjoyed it and much and thanks in advance keep up the work ",56,"charlie_dog","todd_billingsley_man","much more right",1099,2
"135","S2","Hunger",31,"male","white","college_assocDegree","christianity_catholic","Salesman","no_commited","2","America","yes_only","democrat","no","agree_moderate","disagree_strong","agree_strong","agree_moderate","Good engaging study enjoyed it and much and thanks in advance keep up the work ",57,"kismet_robot","toby_chimp","much more right",2035,2
"136","S2","Hunger",31,"male","white","college_assocDegree","christianity_catholic","Salesman","no_commited","2","America","yes_only","democrat","no","agree_moderate","disagree_strong","agree_strong","agree_moderate","Good engaging study enjoyed it and much and thanks in advance keep up the work ",58,"delores_gleitman_deceased","gerald_schiff_pvs","much more right",3130,2
"137","S2","Hunger",31,"male","white","college_assocDegree","christianity_catholic","Salesman","no_commited","2","America","yes_only","democrat","no","agree_moderate","disagree_strong","agree_strong","agree_moderate","Good engaging study enjoyed it and much and thanks in advance keep up the work ",59,"samantha_hill_girl","you","much more left",1365,-2
"138","S2","Hunger",31,"male","white","college_assocDegree","christianity_catholic","Salesman","no_commited","2","America","yes_only","democrat","no","agree_moderate","disagree_strong","agree_strong","agree_moderate","Good engaging study enjoyed it and much and thanks in advance keep up the work ",60,"samantha_hill_girl","sharon_harvey_woman","much more right",1091,2
"139","S2","Hunger",31,"male","white","college_assocDegree","christianity_catholic","Salesman","no_commited","2","America","yes_only","democrat","no","agree_moderate","disagree_strong","agree_strong","agree_moderate","Good engaging study enjoyed it and much and thanks in advance keep up the work ",61,"charlie_dog","god","slightly more left",1303,-1
"140","S2","Hunger",31,"male","white","college_assocDegree","christianity_catholic","Salesman","no_commited","2","America","yes_only","democrat","no","agree_moderate","disagree_strong","agree_strong","agree_moderate","Good engaging study enjoyed it and much and thanks in advance keep up the work ",62,"fetus","kismet_robot","slightly more left",1107,-1
"141","S2","Hunger",31,"male","white","college_assocDegree","christianity_catholic","Salesman","no_commited","2","America","yes_only","democrat","no","agree_moderate","disagree_strong","agree_strong","agree_moderate","Good engaging study enjoyed it and much and thanks in advance keep up the work ",63,"samantha_hill_girl","kismet_robot","slightly more left",908,-1
"142","S2","Hunger",31,"male","white","college_assocDegree","christianity_catholic","Salesman","no_commited","2","America","yes_only","democrat","no","agree_moderate","disagree_strong","agree_strong","agree_moderate","Good engaging study enjoyed it and much and thanks in advance keep up the work ",64,"nicholas_gannon_baby","kismet_robot","slightly more left",1307,-1
"143","S2","Hunger",31,"male","white","college_assocDegree","christianity_catholic","Salesman","no_commited","2","America","yes_only","democrat","no","agree_moderate","disagree_strong","agree_strong","agree_moderate","Good engaging study enjoyed it and much and thanks in advance keep up the work ",65,"delores_gleitman_deceased","fetus","much more right",2098,2
"144","S2","Hunger",31,"male","white","college_assocDegree","christianity_catholic","Salesman","no_commited","2","America","yes_only","democrat","no","agree_moderate","disagree_strong","agree_strong","agree_moderate","Good engaging study enjoyed it and much and thanks in advance keep up the work ",66,"kismet_robot","delores_gleitman_deceased","both equally",2699,0
"145","S2","Hunger",31,"male","white","college_assocDegree","christianity_catholic","Salesman","no_commited","2","America","yes_only","democrat","no","agree_moderate","disagree_strong","agree_strong","agree_moderate","Good engaging study enjoyed it and much and thanks in advance keep up the work ",67,"toby_chimp","gerald_schiff_pvs","slightly more left",1819,-1
"146","S2","Hunger",31,"male","white","college_assocDegree","christianity_catholic","Salesman","no_commited","2","America","yes_only","democrat","no","agree_moderate","disagree_strong","agree_strong","agree_moderate","Good engaging study enjoyed it and much and thanks in advance keep up the work ",68,"fetus","gerald_schiff_pvs","slightly more left",3011,-1
"147","S2","Hunger",31,"male","white","college_assocDegree","christianity_catholic","Salesman","no_commited","2","America","yes_only","democrat","no","agree_moderate","disagree_strong","agree_strong","agree_moderate","Good engaging study enjoyed it and much and thanks in advance keep up the work ",69,"sharon_harvey_woman","toby_chimp","much more left",1235,-2
"148","S2","Hunger",31,"male","white","college_assocDegree","christianity_catholic","Salesman","no_commited","2","America","yes_only","democrat","no","agree_moderate","disagree_strong","agree_strong","agree_moderate","Good engaging study enjoyed it and much and thanks in advance keep up the work ",70,"kismet_robot","todd_billingsley_man","much more right",1279,2
"149","S2","Hunger",31,"male","white","college_assocDegree","christianity_catholic","Salesman","no_commited","2","America","yes_only","democrat","no","agree_moderate","disagree_strong","agree_strong","agree_moderate","Good engaging study enjoyed it and much and thanks in advance keep up the work ",71,"kismet_robot","green_frog","much more right",1075,2
"150","S2","Hunger",31,"male","white","college_assocDegree","christianity_catholic","Salesman","no_commited","2","America","yes_only","democrat","no","agree_moderate","disagree_strong","agree_strong","agree_moderate","Good engaging study enjoyed it and much and thanks in advance keep up the work ",72,"charlie_dog","delores_gleitman_deceased","slightly more left",1467,-1
"151","S2","Hunger",31,"male","white","college_assocDegree","christianity_catholic","Salesman","no_commited","2","America","yes_only","democrat","no","agree_moderate","disagree_strong","agree_strong","agree_moderate","Good engaging study enjoyed it and much and thanks in advance keep up the work ",73,"fetus","todd_billingsley_man","much more right",1204,2
"152","S2","Hunger",31,"male","white","college_assocDegree","christianity_catholic","Salesman","no_commited","2","America","yes_only","democrat","no","agree_moderate","disagree_strong","agree_strong","agree_moderate","Good engaging study enjoyed it and much and thanks in advance keep up the work ",74,"toby_chimp","samantha_hill_girl","slightly more right",1393,1
"153","S2","Hunger",31,"male","white","college_assocDegree","christianity_catholic","Salesman","no_commited","2","America","yes_only","democrat","no","agree_moderate","disagree_strong","agree_strong","agree_moderate","Good engaging study enjoyed it and much and thanks in advance keep up the work ",75,"fetus","you","slightly more left",1864,-1
"154","S2","Hunger",31,"male","white","college_assocDegree","christianity_catholic","Salesman","no_commited","2","America","yes_only","democrat","no","agree_moderate","disagree_strong","agree_strong","agree_moderate","Good engaging study enjoyed it and much and thanks in advance keep up the work ",76,"todd_billingsley_man","nicholas_gannon_baby","slightly more left",2457,-1
"155","S2","Hunger",31,"male","white","college_assocDegree","christianity_catholic","Salesman","no_commited","2","America","yes_only","democrat","no","agree_moderate","disagree_strong","agree_strong","agree_moderate","Good engaging study enjoyed it and much and thanks in advance keep up the work ",77,"charlie_dog","nicholas_gannon_baby","both equally",2787,0
"156","S2","Hunger",31,"male","white","college_assocDegree","christianity_catholic","Salesman","no_commited","2","America","yes_only","democrat","no","agree_moderate","disagree_strong","agree_strong","agree_moderate","Good engaging study enjoyed it and much and thanks in advance keep up the work ",78,"green_frog","you","slightly more left",1043,-1
"157","S3","Fear",23,"female","white","college_bachDegree","christianity_protestant","Archivist","no","0","USA","yes_only","democrat","yes","disagree_strong","disagree_strong","disagree_moderate","agree_little","NA",1,"fetus","toby_chimp","much more right",4027,2
"158","S3","Fear",23,"female","white","college_bachDegree","christianity_protestant","Archivist","no","0","USA","yes_only","democrat","yes","disagree_strong","disagree_strong","disagree_moderate","agree_little","NA",2,"fetus","sharon_harvey_woman","slightly more right",2641,1
"159","S3","Fear",23,"female","white","college_bachDegree","christianity_protestant","Archivist","no","0","USA","yes_only","democrat","yes","disagree_strong","disagree_strong","disagree_moderate","agree_little","NA",3,"nicholas_gannon_baby","kismet_robot","slightly more left",2250,-1
"160","S3","Fear",23,"female","white","college_bachDegree","christianity_protestant","Archivist","no","0","USA","yes_only","democrat","yes","disagree_strong","disagree_strong","disagree_moderate","agree_little","NA",4,"kismet_robot","green_frog","slightly more right",2883,1
"161","S3","Fear",23,"female","white","college_bachDegree","christianity_protestant","Archivist","no","0","USA","yes_only","democrat","yes","disagree_strong","disagree_strong","disagree_moderate","agree_little","NA",5,"delores_gleitman_deceased","todd_billingsley_man","much more right",2683,2
"162","S3","Fear",23,"female","white","college_bachDegree","christianity_protestant","Archivist","no","0","USA","yes_only","democrat","yes","disagree_strong","disagree_strong","disagree_moderate","agree_little","NA",6,"green_frog","sharon_harvey_woman","slightly more right",2995,1
"163","S3","Fear",23,"female","white","college_bachDegree","christianity_protestant","Archivist","no","0","USA","yes_only","democrat","yes","disagree_strong","disagree_strong","disagree_moderate","agree_little","NA",7,"you","gerald_schiff_pvs","slightly more left",2731,-1
"164","S3","Fear",23,"female","white","college_bachDegree","christianity_protestant","Archivist","no","0","USA","yes_only","democrat","yes","disagree_strong","disagree_strong","disagree_moderate","agree_little","NA",8,"samantha_hill_girl","charlie_dog","slightly more right",2747,1
"165","S3","Fear",23,"female","white","college_bachDegree","christianity_protestant","Archivist","no","0","USA","yes_only","democrat","yes","disagree_strong","disagree_strong","disagree_moderate","agree_little","NA",9,"kismet_robot","fetus","slightly more left",3307,-1
"166","S3","Fear",23,"female","white","college_bachDegree","christianity_protestant","Archivist","no","0","USA","yes_only","democrat","yes","disagree_strong","disagree_strong","disagree_moderate","agree_little","NA",10,"kismet_robot","sharon_harvey_woman","much more right",4088,2
"167","S3","Fear",23,"female","white","college_bachDegree","christianity_protestant","Archivist","no","0","USA","yes_only","democrat","yes","disagree_strong","disagree_strong","disagree_moderate","agree_little","NA",11,"todd_billingsley_man","kismet_robot","slightly more left",2159,-1
"168","S3","Fear",23,"female","white","college_bachDegree","christianity_protestant","Archivist","no","0","USA","yes_only","democrat","yes","disagree_strong","disagree_strong","disagree_moderate","agree_little","NA",12,"you","kismet_robot","much more left",1482,-2
"169","S3","Fear",23,"female","white","college_bachDegree","christianity_protestant","Archivist","no","0","USA","yes_only","democrat","yes","disagree_strong","disagree_strong","disagree_moderate","agree_little","NA",13,"charlie_dog","you","much more right",3602,2
"170","S3","Fear",23,"female","white","college_bachDegree","christianity_protestant","Archivist","no","0","USA","yes_only","democrat","yes","disagree_strong","disagree_strong","disagree_moderate","agree_little","NA",14,"sharon_harvey_woman","todd_billingsley_man","both equally",7346,0
"171","S3","Fear",23,"female","white","college_bachDegree","christianity_protestant","Archivist","no","0","USA","yes_only","democrat","yes","disagree_strong","disagree_strong","disagree_moderate","agree_little","NA",15,"charlie_dog","gerald_schiff_pvs","slightly more left",4227,-1
"172","S3","Fear",23,"female","white","college_bachDegree","christianity_protestant","Archivist","no","0","USA","yes_only","democrat","yes","disagree_strong","disagree_strong","disagree_moderate","agree_little","NA",16,"nicholas_gannon_baby","toby_chimp","slightly more right",3112,1
"173","S3","Fear",23,"female","white","college_bachDegree","christianity_protestant","Archivist","no","0","USA","yes_only","democrat","yes","disagree_strong","disagree_strong","disagree_moderate","agree_little","NA",17,"toby_chimp","charlie_dog","slightly more left",5651,-1
"174","S3","Fear",23,"female","white","college_bachDegree","christianity_protestant","Archivist","no","0","USA","yes_only","democrat","yes","disagree_strong","disagree_strong","disagree_moderate","agree_little","NA",18,"toby_chimp","todd_billingsley_man","much more right",2291,2
"175","S3","Fear",23,"female","white","college_bachDegree","christianity_protestant","Archivist","no","0","USA","yes_only","democrat","yes","disagree_strong","disagree_strong","disagree_moderate","agree_little","NA",19,"samantha_hill_girl","kismet_robot","slightly more left",3763,-1
"176","S3","Fear",23,"female","white","college_bachDegree","christianity_protestant","Archivist","no","0","USA","yes_only","democrat","yes","disagree_strong","disagree_strong","disagree_moderate","agree_little","NA",20,"charlie_dog","green_frog","slightly more left",3770,-1
"177","S3","Fear",23,"female","white","college_bachDegree","christianity_protestant","Archivist","no","0","USA","yes_only","democrat","yes","disagree_strong","disagree_strong","disagree_moderate","agree_little","NA",21,"todd_billingsley_man","gerald_schiff_pvs","slightly more left",2299,-1
"178","S3","Fear",23,"female","white","college_bachDegree","christianity_protestant","Archivist","no","0","USA","yes_only","democrat","yes","disagree_strong","disagree_strong","disagree_moderate","agree_little","NA",22,"toby_chimp","sharon_harvey_woman","slightly more right",3531,1
"179","S3","Fear",23,"female","white","college_bachDegree","christianity_protestant","Archivist","no","0","USA","yes_only","democrat","yes","disagree_strong","disagree_strong","disagree_moderate","agree_little","NA",23,"delores_gleitman_deceased","nicholas_gannon_baby","much more right",1853,2
"180","S3","Fear",23,"female","white","college_bachDegree","christianity_protestant","Archivist","no","0","USA","yes_only","democrat","yes","disagree_strong","disagree_strong","disagree_moderate","agree_little","NA",24,"samantha_hill_girl","toby_chimp","both equally",4215,0
"181","S3","Fear",23,"female","white","college_bachDegree","christianity_protestant","Archivist","no","0","USA","yes_only","democrat","yes","disagree_strong","disagree_strong","disagree_moderate","agree_little","NA",25,"toby_chimp","green_frog","slightly more left",3954,-1
"182","S3","Fear",23,"female","white","college_bachDegree","christianity_protestant","Archivist","no","0","USA","yes_only","democrat","yes","disagree_strong","disagree_strong","disagree_moderate","agree_little","NA",26,"fetus","samantha_hill_girl","much more right",3900,2
"183","S3","Fear",23,"female","white","college_bachDegree","christianity_protestant","Archivist","no","0","USA","yes_only","democrat","yes","disagree_strong","disagree_strong","disagree_moderate","agree_little","NA",27,"gerald_schiff_pvs","delores_gleitman_deceased","slightly more left",1961,-1
"184","S3","Fear",23,"female","white","college_bachDegree","christianity_protestant","Archivist","no","0","USA","yes_only","democrat","yes","disagree_strong","disagree_strong","disagree_moderate","agree_little","NA",28,"sharon_harvey_woman","samantha_hill_girl","slightly more right",3489,1
"185","S3","Fear",23,"female","white","college_bachDegree","christianity_protestant","Archivist","no","0","USA","yes_only","democrat","yes","disagree_strong","disagree_strong","disagree_moderate","agree_little","NA",29,"nicholas_gannon_baby","you","much more right",2522,2
"186","S3","Fear",23,"female","white","college_bachDegree","christianity_protestant","Archivist","no","0","USA","yes_only","democrat","yes","disagree_strong","disagree_strong","disagree_moderate","agree_little","NA",30,"fetus","gerald_schiff_pvs","slightly more right",2210,1
"187","S3","Fear",23,"female","white","college_bachDegree","christianity_protestant","Archivist","no","0","USA","yes_only","democrat","yes","disagree_strong","disagree_strong","disagree_moderate","agree_little","NA",31,"fetus","delores_gleitman_deceased","both equally",3538,0
"188","S3","Fear",23,"female","white","college_bachDegree","christianity_protestant","Archivist","no","0","USA","yes_only","democrat","yes","disagree_strong","disagree_strong","disagree_moderate","agree_little","NA",32,"fetus","green_frog","slightly more right",1947,1
"189","S3","Fear",23,"female","white","college_bachDegree","christianity_protestant","Archivist","no","0","USA","yes_only","democrat","yes","disagree_strong","disagree_strong","disagree_moderate","agree_little","NA",33,"god","todd_billingsley_man","slightly more right",2570,1
"190","S3","Fear",23,"female","white","college_bachDegree","christianity_protestant","Archivist","no","0","USA","yes_only","democrat","yes","disagree_strong","disagree_strong","disagree_moderate","agree_little","NA",34,"sharon_harvey_woman","gerald_schiff_pvs","much more left",2146,-2
"191","S3","Fear",23,"female","white","college_bachDegree","christianity_protestant","Archivist","no","0","USA","yes_only","democrat","yes","disagree_strong","disagree_strong","disagree_moderate","agree_little","NA",35,"todd_billingsley_man","nicholas_gannon_baby","much more left",5203,-2
"192","S3","Fear",23,"female","white","college_bachDegree","christianity_protestant","Archivist","no","0","USA","yes_only","democrat","yes","disagree_strong","disagree_strong","disagree_moderate","agree_little","NA",36,"charlie_dog","nicholas_gannon_baby","slightly more left",1636,-1
"193","S3","Fear",23,"female","white","college_bachDegree","christianity_protestant","Archivist","no","0","USA","yes_only","democrat","yes","disagree_strong","disagree_strong","disagree_moderate","agree_little","NA",37,"toby_chimp","you","slightly more right",2288,1
"194","S3","Fear",23,"female","white","college_bachDegree","christianity_protestant","Archivist","no","0","USA","yes_only","democrat","yes","disagree_strong","disagree_strong","disagree_moderate","agree_little","NA",38,"sharon_harvey_woman","you","both equally",2187,0
"195","S3","Fear",23,"female","white","college_bachDegree","christianity_protestant","Archivist","no","0","USA","yes_only","democrat","yes","disagree_strong","disagree_strong","disagree_moderate","agree_little","NA",39,"todd_billingsley_man","you","both equally",899,0
"196","S3","Fear",23,"female","white","college_bachDegree","christianity_protestant","Archivist","no","0","USA","yes_only","democrat","yes","disagree_strong","disagree_strong","disagree_moderate","agree_little","NA",40,"samantha_hill_girl","gerald_schiff_pvs","slightly more left",1737,-1
"197","S3","Fear",23,"female","white","college_bachDegree","christianity_protestant","Archivist","no","0","USA","yes_only","democrat","yes","disagree_strong","disagree_strong","disagree_moderate","agree_little","NA",41,"delores_gleitman_deceased","samantha_hill_girl","slightly more right",1555,1
"198","S3","Fear",23,"female","white","college_bachDegree","christianity_protestant","Archivist","no","0","USA","yes_only","democrat","yes","disagree_strong","disagree_strong","disagree_moderate","agree_little","NA",42,"god","toby_chimp","much more right",3035,2
"199","S3","Fear",23,"female","white","college_bachDegree","christianity_protestant","Archivist","no","0","USA","yes_only","democrat","yes","disagree_strong","disagree_strong","disagree_moderate","agree_little","NA",43,"you","god","much more left",1475,-2
"200","S3","Fear",23,"female","white","college_bachDegree","christianity_protestant","Archivist","no","0","USA","yes_only","democrat","yes","disagree_strong","disagree_strong","disagree_moderate","agree_little","NA",44,"fetus","god","both equally",2859,0
"201","S3","Fear",23,"female","white","college_bachDegree","christianity_protestant","Archivist","no","0","USA","yes_only","democrat","yes","disagree_strong","disagree_strong","disagree_moderate","agree_little","NA",45,"toby_chimp","kismet_robot","much more left",3122,-2
"202","S3","Fear",23,"female","white","college_bachDegree","christianity_protestant","Archivist","no","0","USA","yes_only","democrat","yes","disagree_strong","disagree_strong","disagree_moderate","agree_little","NA",46,"nicholas_gannon_baby","god","slightly more left",1636,-1
"203","S3","Fear",23,"female","white","college_bachDegree","christianity_protestant","Archivist","no","0","USA","yes_only","democrat","yes","disagree_strong","disagree_strong","disagree_moderate","agree_little","NA",47,"green_frog","todd_billingsley_man","slightly more right",4257,1
"204","S3","Fear",23,"female","white","college_bachDegree","christianity_protestant","Archivist","no","0","USA","yes_only","democrat","yes","disagree_strong","disagree_strong","disagree_moderate","agree_little","NA",48,"kismet_robot","gerald_schiff_pvs","both equally",2233,0
"205","S3","Fear",23,"female","white","college_bachDegree","christianity_protestant","Archivist","no","0","USA","yes_only","democrat","yes","disagree_strong","disagree_strong","disagree_moderate","agree_little","NA",49,"toby_chimp","delores_gleitman_deceased","much more left",2883,-2
"206","S3","Fear",23,"female","white","college_bachDegree","christianity_protestant","Archivist","no","0","USA","yes_only","democrat","yes","disagree_strong","disagree_strong","disagree_moderate","agree_little","NA",50,"god","gerald_schiff_pvs","both equally",2883,0
"207","S3","Fear",23,"female","white","college_bachDegree","christianity_protestant","Archivist","no","0","USA","yes_only","democrat","yes","disagree_strong","disagree_strong","disagree_moderate","agree_little","NA",51,"green_frog","samantha_hill_girl","slightly more right",1705,1
"208","S3","Fear",23,"female","white","college_bachDegree","christianity_protestant","Archivist","no","0","USA","yes_only","democrat","yes","disagree_strong","disagree_strong","disagree_moderate","agree_little","NA",52,"charlie_dog","sharon_harvey_woman","both equally",1855,0
"209","S3","Fear",23,"female","white","college_bachDegree","christianity_protestant","Archivist","no","0","USA","yes_only","democrat","yes","disagree_strong","disagree_strong","disagree_moderate","agree_little","NA",53,"charlie_dog","todd_billingsley_man","slightly more right",4319,1
"210","S3","Fear",23,"female","white","college_bachDegree","christianity_protestant","Archivist","no","0","USA","yes_only","democrat","yes","disagree_strong","disagree_strong","disagree_moderate","agree_little","NA",54,"delores_gleitman_deceased","god","both equally",1384,0
"211","S3","Fear",23,"female","white","college_bachDegree","christianity_protestant","Archivist","no","0","USA","yes_only","democrat","yes","disagree_strong","disagree_strong","disagree_moderate","agree_little","NA",55,"god","sharon_harvey_woman","much more right",3640,2
"212","S3","Fear",23,"female","white","college_bachDegree","christianity_protestant","Archivist","no","0","USA","yes_only","democrat","yes","disagree_strong","disagree_strong","disagree_moderate","agree_little","NA",56,"samantha_hill_girl","you","both equally",2578,0
"213","S3","Fear",23,"female","white","college_bachDegree","christianity_protestant","Archivist","no","0","USA","yes_only","democrat","yes","disagree_strong","disagree_strong","disagree_moderate","agree_little","NA",57,"kismet_robot","delores_gleitman_deceased","both equally",2931,0
"214","S3","Fear",23,"female","white","college_bachDegree","christianity_protestant","Archivist","no","0","USA","yes_only","democrat","yes","disagree_strong","disagree_strong","disagree_moderate","agree_little","NA",58,"samantha_hill_girl","nicholas_gannon_baby","slightly more left",2697,-1
"215","S3","Fear",23,"female","white","college_bachDegree","christianity_protestant","Archivist","no","0","USA","yes_only","democrat","yes","disagree_strong","disagree_strong","disagree_moderate","agree_little","NA",59,"nicholas_gannon_baby","fetus","slightly more left",1859,-1
"216","S3","Fear",23,"female","white","college_bachDegree","christianity_protestant","Archivist","no","0","USA","yes_only","democrat","yes","disagree_strong","disagree_strong","disagree_moderate","agree_little","NA",60,"green_frog","you","slightly more right",2698,1
"217","S3","Fear",23,"female","white","college_bachDegree","christianity_protestant","Archivist","no","0","USA","yes_only","democrat","yes","disagree_strong","disagree_strong","disagree_moderate","agree_little","NA",61,"samantha_hill_girl","todd_billingsley_man","slightly more right",9947,1
"218","S3","Fear",23,"female","white","college_bachDegree","christianity_protestant","Archivist","no","0","USA","yes_only","democrat","yes","disagree_strong","disagree_strong","disagree_moderate","agree_little","NA",62,"gerald_schiff_pvs","toby_chimp","slightly more right",1723,1
"219","S3","Fear",23,"female","white","college_bachDegree","christianity_protestant","Archivist","no","0","USA","yes_only","democrat","yes","disagree_strong","disagree_strong","disagree_moderate","agree_little","NA",63,"gerald_schiff_pvs","green_frog","slightly more right",1681,1
"220","S3","Fear",23,"female","white","college_bachDegree","christianity_protestant","Archivist","no","0","USA","yes_only","democrat","yes","disagree_strong","disagree_strong","disagree_moderate","agree_little","NA",64,"charlie_dog","kismet_robot","slightly more left",2179,-1
"221","S3","Fear",23,"female","white","college_bachDegree","christianity_protestant","Archivist","no","0","USA","yes_only","democrat","yes","disagree_strong","disagree_strong","disagree_moderate","agree_little","NA",65,"samantha_hill_girl","god","slightly more left",1880,-1
"222","S3","Fear",23,"female","white","college_bachDegree","christianity_protestant","Archivist","no","0","USA","yes_only","democrat","yes","disagree_strong","disagree_strong","disagree_moderate","agree_little","NA",66,"delores_gleitman_deceased","charlie_dog","slightly more right",1595,1
"223","S3","Fear",23,"female","white","college_bachDegree","christianity_protestant","Archivist","no","0","USA","yes_only","democrat","yes","disagree_strong","disagree_strong","disagree_moderate","agree_little","NA",67,"sharon_harvey_woman","nicholas_gannon_baby","much more left",1929,-2
"224","S3","Fear",23,"female","white","college_bachDegree","christianity_protestant","Archivist","no","0","USA","yes_only","democrat","yes","disagree_strong","disagree_strong","disagree_moderate","agree_little","NA",68,"fetus","todd_billingsley_man","much more right",1587,2
"225","S3","Fear",23,"female","white","college_bachDegree","christianity_protestant","Archivist","no","0","USA","yes_only","democrat","yes","disagree_strong","disagree_strong","disagree_moderate","agree_little","NA",69,"green_frog","nicholas_gannon_baby","slightly more right",2180,1
"226","S3","Fear",23,"female","white","college_bachDegree","christianity_protestant","Archivist","no","0","USA","yes_only","democrat","yes","disagree_strong","disagree_strong","disagree_moderate","agree_little","NA",70,"delores_gleitman_deceased","green_frog","slightly more right",1396,1
"227","S3","Fear",23,"female","white","college_bachDegree","christianity_protestant","Archivist","no","0","USA","yes_only","democrat","yes","disagree_strong","disagree_strong","disagree_moderate","agree_little","NA",71,"gerald_schiff_pvs","nicholas_gannon_baby","slightly more right",1603,1
"228","S3","Fear",23,"female","white","college_bachDegree","christianity_protestant","Archivist","no","0","USA","yes_only","democrat","yes","disagree_strong","disagree_strong","disagree_moderate","agree_little","NA",72,"god","charlie_dog","much more right",2442,2
"229","S3","Fear",23,"female","white","college_bachDegree","christianity_protestant","Archivist","no","0","USA","yes_only","democrat","yes","disagree_strong","disagree_strong","disagree_moderate","agree_little","NA",73,"god","green_frog","much more right",1138,2
"230","S3","Fear",23,"female","white","college_bachDegree","christianity_protestant","Archivist","no","0","USA","yes_only","democrat","yes","disagree_strong","disagree_strong","disagree_moderate","agree_little","NA",74,"sharon_harvey_woman","delores_gleitman_deceased","much more left",2484,-2
"231","S3","Fear",23,"female","white","college_bachDegree","christianity_protestant","Archivist","no","0","USA","yes_only","democrat","yes","disagree_strong","disagree_strong","disagree_moderate","agree_little","NA",75,"kismet_robot","god","slightly more left",5172,-1
"232","S3","Fear",23,"female","white","college_bachDegree","christianity_protestant","Archivist","no","0","USA","yes_only","democrat","yes","disagree_strong","disagree_strong","disagree_moderate","agree_little","NA",76,"you","fetus","much more left",1723,-2
"233","S3","Fear",23,"female","white","college_bachDegree","christianity_protestant","Archivist","no","0","USA","yes_only","democrat","yes","disagree_strong","disagree_strong","disagree_moderate","agree_little","NA",77,"charlie_dog","fetus","much more left",1354,-2
"234","S3","Fear",23,"female","white","college_bachDegree","christianity_protestant","Archivist","no","0","USA","yes_only","democrat","yes","disagree_strong","disagree_strong","disagree_moderate","agree_little","NA",78,"you","delores_gleitman_deceased","much more left",1299,-2
"235","S4","Fear",31,"male","white","college_bachDegree","judaism","unemployed","no","none","USA","yes_only","democrat","yes","disagree_strong","disagree_moderate","neither","agree_little","I only said humans experience more fear than animals because they seem to rationalize and feed their fear more",1,"samantha_hill_girl","todd_billingsley_man","both equally",15334,0
"236","S4","Fear",31,"male","white","college_bachDegree","judaism","unemployed","no","none","USA","yes_only","democrat","yes","disagree_strong","disagree_moderate","neither","agree_little","I only said humans experience more fear than animals because they seem to rationalize and feed their fear more",2,"kismet_robot","green_frog","much more right",3973,2
"237","S4","Fear",31,"male","white","college_bachDegree","judaism","unemployed","no","none","USA","yes_only","democrat","yes","disagree_strong","disagree_moderate","neither","agree_little","I only said humans experience more fear than animals because they seem to rationalize and feed their fear more",3,"god","fetus","slightly more right",14055,1
"238","S4","Fear",31,"male","white","college_bachDegree","judaism","unemployed","no","none","USA","yes_only","democrat","yes","disagree_strong","disagree_moderate","neither","agree_little","I only said humans experience more fear than animals because they seem to rationalize and feed their fear more",4,"samantha_hill_girl","gerald_schiff_pvs","both equally",13914,0
"239","S4","Fear",31,"male","white","college_bachDegree","judaism","unemployed","no","none","USA","yes_only","democrat","yes","disagree_strong","disagree_moderate","neither","agree_little","I only said humans experience more fear than animals because they seem to rationalize and feed their fear more",5,"nicholas_gannon_baby","gerald_schiff_pvs","both equally",5471,0
"240","S4","Fear",31,"male","white","college_bachDegree","judaism","unemployed","no","none","USA","yes_only","democrat","yes","disagree_strong","disagree_moderate","neither","agree_little","I only said humans experience more fear than animals because they seem to rationalize and feed their fear more",6,"samantha_hill_girl","god","much more left",4988,-2
"241","S4","Fear",31,"male","white","college_bachDegree","judaism","unemployed","no","none","USA","yes_only","democrat","yes","disagree_strong","disagree_moderate","neither","agree_little","I only said humans experience more fear than animals because they seem to rationalize and feed their fear more",7,"delores_gleitman_deceased","kismet_robot","both equally",4150,0
"242","S4","Fear",31,"male","white","college_bachDegree","judaism","unemployed","no","none","USA","yes_only","democrat","yes","disagree_strong","disagree_moderate","neither","agree_little","I only said humans experience more fear than animals because they seem to rationalize and feed their fear more",8,"green_frog","sharon_harvey_woman","both equally",3470,0
"243","S4","Fear",31,"male","white","college_bachDegree","judaism","unemployed","no","none","USA","yes_only","democrat","yes","disagree_strong","disagree_moderate","neither","agree_little","I only said humans experience more fear than animals because they seem to rationalize and feed their fear more",9,"delores_gleitman_deceased","gerald_schiff_pvs","much more right",2941,2
"244","S4","Fear",31,"male","white","college_bachDegree","judaism","unemployed","no","none","USA","yes_only","democrat","yes","disagree_strong","disagree_moderate","neither","agree_little","I only said humans experience more fear than animals because they seem to rationalize and feed their fear more",10,"toby_chimp","charlie_dog","both equally",3742,0
"245","S4","Fear",31,"male","white","college_bachDegree","judaism","unemployed","no","none","USA","yes_only","democrat","yes","disagree_strong","disagree_moderate","neither","agree_little","I only said humans experience more fear than animals because they seem to rationalize and feed their fear more",11,"fetus","nicholas_gannon_baby","slightly more right",3701,1
"246","S4","Fear",31,"male","white","college_bachDegree","judaism","unemployed","no","none","USA","yes_only","democrat","yes","disagree_strong","disagree_moderate","neither","agree_little","I only said humans experience more fear than animals because they seem to rationalize and feed their fear more",12,"charlie_dog","todd_billingsley_man","slightly more right",7982,1
"247","S4","Fear",31,"male","white","college_bachDegree","judaism","unemployed","no","none","USA","yes_only","democrat","yes","disagree_strong","disagree_moderate","neither","agree_little","I only said humans experience more fear than animals because they seem to rationalize and feed their fear more",13,"delores_gleitman_deceased","fetus","much more right",2374,2
"248","S4","Fear",31,"male","white","college_bachDegree","judaism","unemployed","no","none","USA","yes_only","democrat","yes","disagree_strong","disagree_moderate","neither","agree_little","I only said humans experience more fear than animals because they seem to rationalize and feed their fear more",14,"todd_billingsley_man","kismet_robot","much more left",1718,-2
"249","S4","Fear",31,"male","white","college_bachDegree","judaism","unemployed","no","none","USA","yes_only","democrat","yes","disagree_strong","disagree_moderate","neither","agree_little","I only said humans experience more fear than animals because they seem to rationalize and feed their fear more",15,"god","charlie_dog","much more right",2214,2
"250","S4","Fear",31,"male","white","college_bachDegree","judaism","unemployed","no","none","USA","yes_only","democrat","yes","disagree_strong","disagree_moderate","neither","agree_little","I only said humans experience more fear than animals because they seem to rationalize and feed their fear more",16,"charlie_dog","kismet_robot","much more left",1693,-2
"251","S4","Fear",31,"male","white","college_bachDegree","judaism","unemployed","no","none","USA","yes_only","democrat","yes","disagree_strong","disagree_moderate","neither","agree_little","I only said humans experience more fear than animals because they seem to rationalize and feed their fear more",17,"nicholas_gannon_baby","toby_chimp","both equally",5141,0
"252","S4","Fear",31,"male","white","college_bachDegree","judaism","unemployed","no","none","USA","yes_only","democrat","yes","disagree_strong","disagree_moderate","neither","agree_little","I only said humans experience more fear than animals because they seem to rationalize and feed their fear more",18,"kismet_robot","god","both equally",5894,0
"253","S4","Fear",31,"male","white","college_bachDegree","judaism","unemployed","no","none","USA","yes_only","democrat","yes","disagree_strong","disagree_moderate","neither","agree_little","I only said humans experience more fear than animals because they seem to rationalize and feed their fear more",19,"sharon_harvey_woman","god","much more left",1885,-2
"254","S4","Fear",31,"male","white","college_bachDegree","judaism","unemployed","no","none","USA","yes_only","democrat","yes","disagree_strong","disagree_moderate","neither","agree_little","I only said humans experience more fear than animals because they seem to rationalize and feed their fear more",20,"todd_billingsley_man","fetus","slightly more left",2166,-1
"255","S4","Fear",31,"male","white","college_bachDegree","judaism","unemployed","no","none","USA","yes_only","democrat","yes","disagree_strong","disagree_moderate","neither","agree_little","I only said humans experience more fear than animals because they seem to rationalize and feed their fear more",21,"kismet_robot","samantha_hill_girl","much more right",11692,2
"256","S4","Fear",31,"male","white","college_bachDegree","judaism","unemployed","no","none","USA","yes_only","democrat","yes","disagree_strong","disagree_moderate","neither","agree_little","I only said humans experience more fear than animals because they seem to rationalize and feed their fear more",22,"delores_gleitman_deceased","green_frog","much more right",8432,2
"257","S4","Fear",31,"male","white","college_bachDegree","judaism","unemployed","no","none","USA","yes_only","democrat","yes","disagree_strong","disagree_moderate","neither","agree_little","I only said humans experience more fear than animals because they seem to rationalize and feed their fear more",23,"sharon_harvey_woman","kismet_robot","much more left",1743,-2
"258","S4","Fear",31,"male","white","college_bachDegree","judaism","unemployed","no","none","USA","yes_only","democrat","yes","disagree_strong","disagree_moderate","neither","agree_little","I only said humans experience more fear than animals because they seem to rationalize and feed their fear more",24,"gerald_schiff_pvs","god","much more left",2365,-2
"259","S4","Fear",31,"male","white","college_bachDegree","judaism","unemployed","no","none","USA","yes_only","democrat","yes","disagree_strong","disagree_moderate","neither","agree_little","I only said humans experience more fear than animals because they seem to rationalize and feed their fear more",25,"fetus","samantha_hill_girl","slightly more right",1833,1
"260","S4","Fear",31,"male","white","college_bachDegree","judaism","unemployed","no","none","USA","yes_only","democrat","yes","disagree_strong","disagree_moderate","neither","agree_little","I only said humans experience more fear than animals because they seem to rationalize and feed their fear more",26,"god","you","much more right",1910,2
"261","S4","Fear",31,"male","white","college_bachDegree","judaism","unemployed","no","none","USA","yes_only","democrat","yes","disagree_strong","disagree_moderate","neither","agree_little","I only said humans experience more fear than animals because they seem to rationalize and feed their fear more",27,"fetus","toby_chimp","slightly more right",2716,1
"262","S4","Fear",31,"male","white","college_bachDegree","judaism","unemployed","no","none","USA","yes_only","democrat","yes","disagree_strong","disagree_moderate","neither","agree_little","I only said humans experience more fear than animals because they seem to rationalize and feed their fear more",28,"you","todd_billingsley_man","both equally",1798,0
"263","S4","Fear",31,"male","white","college_bachDegree","judaism","unemployed","no","none","USA","yes_only","democrat","yes","disagree_strong","disagree_moderate","neither","agree_little","I only said humans experience more fear than animals because they seem to rationalize and feed their fear more",29,"samantha_hill_girl","charlie_dog","both equally",1687,0
"264","S4","Fear",31,"male","white","college_bachDegree","judaism","unemployed","no","none","USA","yes_only","democrat","yes","disagree_strong","disagree_moderate","neither","agree_little","I only said humans experience more fear than animals because they seem to rationalize and feed their fear more",30,"sharon_harvey_woman","samantha_hill_girl","both equally",792,0
"265","S4","Fear",31,"male","white","college_bachDegree","judaism","unemployed","no","none","USA","yes_only","democrat","yes","disagree_strong","disagree_moderate","neither","agree_little","I only said humans experience more fear than animals because they seem to rationalize and feed their fear more",31,"gerald_schiff_pvs","fetus","slightly more left",1764,-1
"266","S4","Fear",31,"male","white","college_bachDegree","judaism","unemployed","no","none","USA","yes_only","democrat","yes","disagree_strong","disagree_moderate","neither","agree_little","I only said humans experience more fear than animals because they seem to rationalize and feed their fear more",32,"nicholas_gannon_baby","charlie_dog","slightly more left",5125,-1
"267","S4","Fear",31,"male","white","college_bachDegree","judaism","unemployed","no","none","USA","yes_only","democrat","yes","disagree_strong","disagree_moderate","neither","agree_little","I only said humans experience more fear than animals because they seem to rationalize and feed their fear more",33,"sharon_harvey_woman","todd_billingsley_man","both equally",1483,0
"268","S4","Fear",31,"male","white","college_bachDegree","judaism","unemployed","no","none","USA","yes_only","democrat","yes","disagree_strong","disagree_moderate","neither","agree_little","I only said humans experience more fear than animals because they seem to rationalize and feed their fear more",34,"sharon_harvey_woman","delores_gleitman_deceased","much more left",1438,-2
"269","S4","Fear",31,"male","white","college_bachDegree","judaism","unemployed","no","none","USA","yes_only","democrat","yes","disagree_strong","disagree_moderate","neither","agree_little","I only said humans experience more fear than animals because they seem to rationalize and feed their fear more",35,"gerald_schiff_pvs","sharon_harvey_woman","both equally",2811,0
"270","S4","Fear",31,"male","white","college_bachDegree","judaism","unemployed","no","none","USA","yes_only","democrat","yes","disagree_strong","disagree_moderate","neither","agree_little","I only said humans experience more fear than animals because they seem to rationalize and feed their fear more",36,"toby_chimp","green_frog","both equally",1854,0
"271","S4","Fear",31,"male","white","college_bachDegree","judaism","unemployed","no","none","USA","yes_only","democrat","yes","disagree_strong","disagree_moderate","neither","agree_little","I only said humans experience more fear than animals because they seem to rationalize and feed their fear more",37,"nicholas_gannon_baby","todd_billingsley_man","both equally",4439,0
"272","S4","Fear",31,"male","white","college_bachDegree","judaism","unemployed","no","none","USA","yes_only","democrat","yes","disagree_strong","disagree_moderate","neither","agree_little","I only said humans experience more fear than animals because they seem to rationalize and feed their fear more",38,"you","kismet_robot","much more left",1806,-2
"273","S4","Fear",31,"male","white","college_bachDegree","judaism","unemployed","no","none","USA","yes_only","democrat","yes","disagree_strong","disagree_moderate","neither","agree_little","I only said humans experience more fear than animals because they seem to rationalize and feed their fear more",39,"fetus","you","slightly more right",4268,1
"274","S4","Fear",31,"male","white","college_bachDegree","judaism","unemployed","no","none","USA","yes_only","democrat","yes","disagree_strong","disagree_moderate","neither","agree_little","I only said humans experience more fear than animals because they seem to rationalize and feed their fear more",40,"green_frog","you","slightly more right",6558,1
"275","S4","Fear",31,"male","white","college_bachDegree","judaism","unemployed","no","none","USA","yes_only","democrat","yes","disagree_strong","disagree_moderate","neither","agree_little","I only said humans experience more fear than animals because they seem to rationalize and feed their fear more",41,"charlie_dog","sharon_harvey_woman","slightly more right",2093,1
"276","S4","Fear",31,"male","white","college_bachDegree","judaism","unemployed","no","none","USA","yes_only","democrat","yes","disagree_strong","disagree_moderate","neither","agree_little","I only said humans experience more fear than animals because they seem to rationalize and feed their fear more",42,"todd_billingsley_man","toby_chimp","slightly more left",2523,-1
"277","S4","Fear",31,"male","white","college_bachDegree","judaism","unemployed","no","none","USA","yes_only","democrat","yes","disagree_strong","disagree_moderate","neither","agree_little","I only said humans experience more fear than animals because they seem to rationalize and feed their fear more",43,"nicholas_gannon_baby","kismet_robot","much more left",1748,-2
"278","S4","Fear",31,"male","white","college_bachDegree","judaism","unemployed","no","none","USA","yes_only","democrat","yes","disagree_strong","disagree_moderate","neither","agree_little","I only said humans experience more fear than animals because they seem to rationalize and feed their fear more",44,"samantha_hill_girl","you","both equally",69495,0
"279","S4","Fear",31,"male","white","college_bachDegree","judaism","unemployed","no","none","USA","yes_only","democrat","yes","disagree_strong","disagree_moderate","neither","agree_little","I only said humans experience more fear than animals because they seem to rationalize and feed their fear more",45,"green_frog","charlie_dog","both equally",1636,0
"280","S4","Fear",31,"male","white","college_bachDegree","judaism","unemployed","no","none","USA","yes_only","democrat","yes","disagree_strong","disagree_moderate","neither","agree_little","I only said humans experience more fear than animals because they seem to rationalize and feed their fear more",46,"nicholas_gannon_baby","samantha_hill_girl","both equally",2399,0
"281","S4","Fear",31,"male","white","college_bachDegree","judaism","unemployed","no","none","USA","yes_only","democrat","yes","disagree_strong","disagree_moderate","neither","agree_little","I only said humans experience more fear than animals because they seem to rationalize and feed their fear more",47,"samantha_hill_girl","green_frog","slightly more left",1374,-1
"282","S4","Fear",31,"male","white","college_bachDegree","judaism","unemployed","no","none","USA","yes_only","democrat","yes","disagree_strong","disagree_moderate","neither","agree_little","I only said humans experience more fear than animals because they seem to rationalize and feed their fear more",48,"delores_gleitman_deceased","toby_chimp","much more right",2302,2
"283","S4","Fear",31,"male","white","college_bachDegree","judaism","unemployed","no","none","USA","yes_only","democrat","yes","disagree_strong","disagree_moderate","neither","agree_little","I only said humans experience more fear than animals because they seem to rationalize and feed their fear more",49,"gerald_schiff_pvs","charlie_dog","both equally",3974,0
"284","S4","Fear",31,"male","white","college_bachDegree","judaism","unemployed","no","none","USA","yes_only","democrat","yes","disagree_strong","disagree_moderate","neither","agree_little","I only said humans experience more fear than animals because they seem to rationalize and feed their fear more",50,"green_frog","fetus","both equally",2380,0
"285","S4","Fear",31,"male","white","college_bachDegree","judaism","unemployed","no","none","USA","yes_only","democrat","yes","disagree_strong","disagree_moderate","neither","agree_little","I only said humans experience more fear than animals because they seem to rationalize and feed their fear more",51,"you","nicholas_gannon_baby","both equally",2716,0
"286","S4","Fear",31,"male","white","college_bachDegree","judaism","unemployed","no","none","USA","yes_only","democrat","yes","disagree_strong","disagree_moderate","neither","agree_little","I only said humans experience more fear than animals because they seem to rationalize and feed their fear more",52,"toby_chimp","sharon_harvey_woman","slightly more right",2221,1
"287","S4","Fear",31,"male","white","college_bachDegree","judaism","unemployed","no","none","USA","yes_only","democrat","yes","disagree_strong","disagree_moderate","neither","agree_little","I only said humans experience more fear than animals because they seem to rationalize and feed their fear more",53,"todd_billingsley_man","delores_gleitman_deceased","much more left",1582,-2
"288","S4","Fear",31,"male","white","college_bachDegree","judaism","unemployed","no","none","USA","yes_only","democrat","yes","disagree_strong","disagree_moderate","neither","agree_little","I only said humans experience more fear than animals because they seem to rationalize and feed their fear more",54,"delores_gleitman_deceased","god","both equally",1999,0
"289","S4","Fear",31,"male","white","college_bachDegree","judaism","unemployed","no","none","USA","yes_only","democrat","yes","disagree_strong","disagree_moderate","neither","agree_little","I only said humans experience more fear than animals because they seem to rationalize and feed their fear more",55,"sharon_harvey_woman","you","both equally",1469,0
"290","S4","Fear",31,"male","white","college_bachDegree","judaism","unemployed","no","none","USA","yes_only","democrat","yes","disagree_strong","disagree_moderate","neither","agree_little","I only said humans experience more fear than animals because they seem to rationalize and feed their fear more",56,"god","green_frog","slightly more right",2062,1
"291","S4","Fear",31,"male","white","college_bachDegree","judaism","unemployed","no","none","USA","yes_only","democrat","yes","disagree_strong","disagree_moderate","neither","agree_little","I only said humans experience more fear than animals because they seem to rationalize and feed their fear more",57,"gerald_schiff_pvs","you","both equally",2822,0
"292","S4","Fear",31,"male","white","college_bachDegree","judaism","unemployed","no","none","USA","yes_only","democrat","yes","disagree_strong","disagree_moderate","neither","agree_little","I only said humans experience more fear than animals because they seem to rationalize and feed their fear more",58,"nicholas_gannon_baby","green_frog","slightly more left",2382,-1
"293","S4","Fear",31,"male","white","college_bachDegree","judaism","unemployed","no","none","USA","yes_only","democrat","yes","disagree_strong","disagree_moderate","neither","agree_little","I only said humans experience more fear than animals because they seem to rationalize and feed their fear more",59,"toby_chimp","gerald_schiff_pvs","slightly more right",3444,1
"294","S4","Fear",31,"male","white","college_bachDegree","judaism","unemployed","no","none","USA","yes_only","democrat","yes","disagree_strong","disagree_moderate","neither","agree_little","I only said humans experience more fear than animals because they seem to rationalize and feed their fear more",60,"toby_chimp","god","much more left",11254,-2
"295","S4","Fear",31,"male","white","college_bachDegree","judaism","unemployed","no","none","USA","yes_only","democrat","yes","disagree_strong","disagree_moderate","neither","agree_little","I only said humans experience more fear than animals because they seem to rationalize and feed their fear more",61,"sharon_harvey_woman","fetus","slightly more left",6783,-1
"296","S4","Fear",31,"male","white","college_bachDegree","judaism","unemployed","no","none","USA","yes_only","democrat","yes","disagree_strong","disagree_moderate","neither","agree_little","I only said humans experience more fear than animals because they seem to rationalize and feed their fear more",62,"charlie_dog","you","slightly more right",2894,1
"297","S4","Fear",31,"male","white","college_bachDegree","judaism","unemployed","no","none","USA","yes_only","democrat","yes","disagree_strong","disagree_moderate","neither","agree_little","I only said humans experience more fear than animals because they seem to rationalize and feed their fear more",63,"delores_gleitman_deceased","charlie_dog","much more right",1558,2
"298","S4","Fear",31,"male","white","college_bachDegree","judaism","unemployed","no","none","USA","yes_only","democrat","yes","disagree_strong","disagree_moderate","neither","agree_little","I only said humans experience more fear than animals because they seem to rationalize and feed their fear more",64,"toby_chimp","you","slightly more right",1535,1
"299","S4","Fear",31,"male","white","college_bachDegree","judaism","unemployed","no","none","USA","yes_only","democrat","yes","disagree_strong","disagree_moderate","neither","agree_little","I only said humans experience more fear than animals because they seem to rationalize and feed their fear more",65,"sharon_harvey_woman","nicholas_gannon_baby","both equally",1287,0
"300","S4","Fear",31,"male","white","college_bachDegree","judaism","unemployed","no","none","USA","yes_only","democrat","yes","disagree_strong","disagree_moderate","neither","agree_little","I only said humans experience more fear than animals because they seem to rationalize and feed their fear more",66,"todd_billingsley_man","god","much more left",2207,-2
"301","S4","Fear",31,"male","white","college_bachDegree","judaism","unemployed","no","none","USA","yes_only","democrat","yes","disagree_strong","disagree_moderate","neither","agree_little","I only said humans experience more fear than animals because they seem to rationalize and feed their fear more",67,"samantha_hill_girl","delores_gleitman_deceased","much more left",1475,-2
"302","S4","Fear",31,"male","white","college_bachDegree","judaism","unemployed","no","none","USA","yes_only","democrat","yes","disagree_strong","disagree_moderate","neither","agree_little","I only said humans experience more fear than animals because they seem to rationalize and feed their fear more",68,"toby_chimp","samantha_hill_girl","slightly more right",2029,1
"303","S4","Fear",31,"male","white","college_bachDegree","judaism","unemployed","no","none","USA","yes_only","democrat","yes","disagree_strong","disagree_moderate","neither","agree_little","I only said humans experience more fear than animals because they seem to rationalize and feed their fear more",69,"nicholas_gannon_baby","delores_gleitman_deceased","much more left",1495,-2
"304","S4","Fear",31,"male","white","college_bachDegree","judaism","unemployed","no","none","USA","yes_only","democrat","yes","disagree_strong","disagree_moderate","neither","agree_little","I only said humans experience more fear than animals because they seem to rationalize and feed their fear more",70,"todd_billingsley_man","green_frog","slightly more left",1855,-1
"305","S4","Fear",31,"male","white","college_bachDegree","judaism","unemployed","no","none","USA","yes_only","democrat","yes","disagree_strong","disagree_moderate","neither","agree_little","I only said humans experience more fear than animals because they seem to rationalize and feed their fear more",71,"kismet_robot","toby_chimp","much more right",1492,2
"306","S4","Fear",31,"male","white","college_bachDegree","judaism","unemployed","no","none","USA","yes_only","democrat","yes","disagree_strong","disagree_moderate","neither","agree_little","I only said humans experience more fear than animals because they seem to rationalize and feed their fear more",72,"you","delores_gleitman_deceased","much more left",1781,-2
"307","S4","Fear",31,"male","white","college_bachDegree","judaism","unemployed","no","none","USA","yes_only","democrat","yes","disagree_strong","disagree_moderate","neither","agree_little","I only said humans experience more fear than animals because they seem to rationalize and feed their fear more",73,"gerald_schiff_pvs","todd_billingsley_man","both equally",1743,0
"308","S4","Fear",31,"male","white","college_bachDegree","judaism","unemployed","no","none","USA","yes_only","democrat","yes","disagree_strong","disagree_moderate","neither","agree_little","I only said humans experience more fear than animals because they seem to rationalize and feed their fear more",74,"gerald_schiff_pvs","green_frog","slightly more left",1215,-1
"309","S4","Fear",31,"male","white","college_bachDegree","judaism","unemployed","no","none","USA","yes_only","democrat","yes","disagree_strong","disagree_moderate","neither","agree_little","I only said humans experience more fear than animals because they seem to rationalize and feed their fear more",75,"charlie_dog","fetus","both equally",1748,0
"310","S4","Fear",31,"male","white","college_bachDegree","judaism","unemployed","no","none","USA","yes_only","democrat","yes","disagree_strong","disagree_moderate","neither","agree_little","I only said humans experience more fear than animals because they seem to rationalize and feed their fear more",76,"kismet_robot","fetus","much more right",2374,2
"311","S4","Fear",31,"male","white","college_bachDegree","judaism","unemployed","no","none","USA","yes_only","democrat","yes","disagree_strong","disagree_moderate","neither","agree_little","I only said humans experience more fear than animals because they seem to rationalize and feed their fear more",77,"gerald_schiff_pvs","kismet_robot","much more left",1654,-2
"312","S4","Fear",31,"male","white","college_bachDegree","judaism","unemployed","no","none","USA","yes_only","democrat","yes","disagree_strong","disagree_moderate","neither","agree_little","I only said humans experience more fear than animals because they seem to rationalize and feed their fear more",78,"god","nicholas_gannon_baby","much more right",2645,2
"313","S5","Morality",66,"male","white","college_some","christianity_protestant","retired software developer","no_commited","0","United States of America","yes_only","independent","no","disagree_strong","disagree_moderate","neither","disagree_moderate","No, everything was fine. Also very interesting.",1,"toby_chimp","samantha_hill_girl","slightly more right",9597,1
"314","S5","Morality",66,"male","white","college_some","christianity_protestant","retired software developer","no_commited","0","United States of America","yes_only","independent","no","disagree_strong","disagree_moderate","neither","disagree_moderate","No, everything was fine. Also very interesting.",2,"green_frog","god","slightly more left",4956,-1
"315","S5","Morality",66,"male","white","college_some","christianity_protestant","retired software developer","no_commited","0","United States of America","yes_only","independent","no","disagree_strong","disagree_moderate","neither","disagree_moderate","No, everything was fine. Also very interesting.",3,"charlie_dog","gerald_schiff_pvs","slightly more left",4366,-1
"316","S5","Morality",66,"male","white","college_some","christianity_protestant","retired software developer","no_commited","0","United States of America","yes_only","independent","no","disagree_strong","disagree_moderate","neither","disagree_moderate","No, everything was fine. Also very interesting.",4,"sharon_harvey_woman","nicholas_gannon_baby","much more left",2326,-2
