"","run","subid","condition","compCheckFree","compCheckMulti","country","age","gender","englishNative","ethnicity","education","religionChild","religionNow","politicalIdeology","maritalStatus","children","job","studyMoralPhil","dog","vegetarian","beliefRules","beliefGod","beliefAfterlife","beliefTradition","comments","trialNum","leftCharacter","rightCharacter","response","rt","country_selfrep","compCheckCount","responseNum"
"1","d_us_pilot_A","d_us_pilot_A_1","seeing_things",NA,NA,"us",21,"male","yes_only","asian_eastAsian","college_bachDegree","none","none","democrat","no",1,"Research Assistant ","no","yes","no","neither","disagree_little","disagree_little","disagree_moderate",NA,1,"charlie_dog","sharon_harvey_woman","much more right",7656,"United States of America",NA,2
"2","d_us_pilot_A","d_us_pilot_A_1","seeing_things",NA,NA,"us",21,"male","yes_only","asian_eastAsian","college_bachDegree","none","none","democrat","no",1,"Research Assistant ","no","yes","no","neither","disagree_little","disagree_little","disagree_moderate",NA,2,"toby_chimp","delores_gleitman_deceased","much more left",1765,"United States of America",NA,-2
"3","d_us_pilot_A","d_us_pilot_A_1","seeing_things",NA,NA,"us",21,"male","yes_only","asian_eastAsian","college_bachDegree","none","none","democrat","no",1,"Research Assistant ","no","yes","no","neither","disagree_little","disagree_little","disagree_moderate",NA,3,"green_frog","sharon_harvey_woman","much more right",1245,"United States of America",NA,2
"4","d_us_pilot_A","d_us_pilot_A_1","seeing_things",NA,NA,"us",21,"male","yes_only","asian_eastAsian","college_bachDegree","none","none","democrat","no",1,"Research Assistant ","no","yes","no","neither","disagree_little","disagree_little","disagree_moderate",NA,4,"gerald_schiff_pvs","god","much more right",2011,"United States of America",NA,2
"5","d_us_pilot_A","d_us_pilot_A_1","seeing_things",NA,NA,"us",21,"male","yes_only","asian_eastAsian","college_bachDegree","none","none","democrat","no",1,"Research Assistant ","no","yes","no","neither","disagree_little","disagree_little","disagree_moderate",NA,5,"gerald_schiff_pvs","fetus","much more left",2639,"United States of America",NA,-2
"6","d_us_pilot_A","d_us_pilot_A_1","seeing_things",NA,NA,"us",21,"male","yes_only","asian_eastAsian","college_bachDegree","none","none","democrat","no",1,"Research Assistant ","no","yes","no","neither","disagree_little","disagree_little","disagree_moderate",NA,6,"nicholas_gannon_baby","toby_chimp","much more right",2990,"United States of America",NA,2
"7","d_us_pilot_A","d_us_pilot_A_1","seeing_things",NA,NA,"us",21,"male","yes_only","asian_eastAsian","college_bachDegree","none","none","democrat","no",1,"Research Assistant ","no","yes","no","neither","disagree_little","disagree_little","disagree_moderate",NA,7,"god","green_frog","much more left",1583,"United States of America",NA,-2
"8","d_us_pilot_A","d_us_pilot_A_1","seeing_things",NA,NA,"us",21,"male","yes_only","asian_eastAsian","college_bachDegree","none","none","democrat","no",1,"Research Assistant ","no","yes","no","neither","disagree_little","disagree_little","disagree_moderate",NA,8,"delores_gleitman_deceased","samantha_hill_girl","much more right",3047,"United States of America",NA,2
"9","d_us_pilot_A","d_us_pilot_A_1","seeing_things",NA,NA,"us",21,"male","yes_only","asian_eastAsian","college_bachDegree","none","none","democrat","no",1,"Research Assistant ","no","yes","no","neither","disagree_little","disagree_little","disagree_moderate",NA,9,"toby_chimp","god","much more right",2582,"United States of America",NA,2
"10","d_us_pilot_A","d_us_pilot_A_1","seeing_things",NA,NA,"us",21,"male","yes_only","asian_eastAsian","college_bachDegree","none","none","democrat","no",1,"Research Assistant ","no","yes","no","neither","disagree_little","disagree_little","disagree_moderate",NA,10,"you","nicholas_gannon_baby","much more left",1855,"United States of America",NA,-2
"11","d_us_pilot_A","d_us_pilot_A_1","seeing_things",NA,NA,"us",21,"male","yes_only","asian_eastAsian","college_bachDegree","none","none","democrat","no",1,"Research Assistant ","no","yes","no","neither","disagree_little","disagree_little","disagree_moderate",NA,11,"kismet_robot","sharon_harvey_woman","much more right",1067,"United States of America",NA,2
"12","d_us_pilot_A","d_us_pilot_A_1","seeing_things",NA,NA,"us",21,"male","yes_only","asian_eastAsian","college_bachDegree","none","none","democrat","no",1,"Research Assistant ","no","yes","no","neither","disagree_little","disagree_little","disagree_moderate",NA,12,"gerald_schiff_pvs","nicholas_gannon_baby","much more left",4006,"United States of America",NA,-2
"13","d_us_pilot_A","d_us_pilot_A_1","seeing_things",NA,NA,"us",21,"male","yes_only","asian_eastAsian","college_bachDegree","none","none","democrat","no",1,"Research Assistant ","no","yes","no","neither","disagree_little","disagree_little","disagree_moderate",NA,13,"charlie_dog","green_frog","much more left",4688,"United States of America",NA,-2
"14","d_us_pilot_A","d_us_pilot_A_1","seeing_things",NA,NA,"us",21,"male","yes_only","asian_eastAsian","college_bachDegree","none","none","democrat","no",1,"Research Assistant ","no","yes","no","neither","disagree_little","disagree_little","disagree_moderate",NA,14,"fetus","you","much more right",5501,"United States of America",NA,2
"15","d_us_pilot_A","d_us_pilot_A_1","seeing_things",NA,NA,"us",21,"male","yes_only","asian_eastAsian","college_bachDegree","none","none","democrat","no",1,"Research Assistant ","no","yes","no","neither","disagree_little","disagree_little","disagree_moderate",NA,15,"sharon_harvey_woman","you","both equally",2096,"United States of America",NA,0
"16","d_us_pilot_A","d_us_pilot_A_1","seeing_things",NA,NA,"us",21,"male","yes_only","asian_eastAsian","college_bachDegree","none","none","democrat","no",1,"Research Assistant ","no","yes","no","neither","disagree_little","disagree_little","disagree_moderate",NA,16,"nicholas_gannon_baby","fetus","slightly more left",5271,"United States of America",NA,-1
"17","d_us_pilot_A","d_us_pilot_A_1","seeing_things",NA,NA,"us",21,"male","yes_only","asian_eastAsian","college_bachDegree","none","none","democrat","no",1,"Research Assistant ","no","yes","no","neither","disagree_little","disagree_little","disagree_moderate",NA,17,"gerald_schiff_pvs","delores_gleitman_deceased","both equally",6520,"United States of America",NA,0
"18","d_us_pilot_A","d_us_pilot_A_1","seeing_things",NA,NA,"us",21,"male","yes_only","asian_eastAsian","college_bachDegree","none","none","democrat","no",1,"Research Assistant ","no","yes","no","neither","disagree_little","disagree_little","disagree_moderate",NA,18,"fetus","sharon_harvey_woman","much more right",3149,"United States of America",NA,2
"19","d_us_pilot_A","d_us_pilot_A_1","seeing_things",NA,NA,"us",21,"male","yes_only","asian_eastAsian","college_bachDegree","none","none","democrat","no",1,"Research Assistant ","no","yes","no","neither","disagree_little","disagree_little","disagree_moderate",NA,19,"todd_billingsley_man","god","much more right",1535,"United States of America",NA,2
"20","d_us_pilot_A","d_us_pilot_A_1","seeing_things",NA,NA,"us",21,"male","yes_only","asian_eastAsian","college_bachDegree","none","none","democrat","no",1,"Research Assistant ","no","yes","no","neither","disagree_little","disagree_little","disagree_moderate",NA,20,"you","todd_billingsley_man","both equally",2088,"United States of America",NA,0
"21","d_us_pilot_A","d_us_pilot_A_1","seeing_things",NA,NA,"us",21,"male","yes_only","asian_eastAsian","college_bachDegree","none","none","democrat","no",1,"Research Assistant ","no","yes","no","neither","disagree_little","disagree_little","disagree_moderate",NA,21,"god","nicholas_gannon_baby","much more left",2125,"United States of America",NA,-2
"22","d_us_pilot_A","d_us_pilot_A_1","seeing_things",NA,NA,"us",21,"male","yes_only","asian_eastAsian","college_bachDegree","none","none","democrat","no",1,"Research Assistant ","no","yes","no","neither","disagree_little","disagree_little","disagree_moderate",NA,22,"samantha_hill_girl","todd_billingsley_man","slightly more right",2582,"United States of America",NA,1
"23","d_us_pilot_A","d_us_pilot_A_1","seeing_things",NA,NA,"us",21,"male","yes_only","asian_eastAsian","college_bachDegree","none","none","democrat","no",1,"Research Assistant ","no","yes","no","neither","disagree_little","disagree_little","disagree_moderate",NA,23,"god","fetus","much more left",5737,"United States of America",NA,-2
"24","d_us_pilot_A","d_us_pilot_A_1","seeing_things",NA,NA,"us",21,"male","yes_only","asian_eastAsian","college_bachDegree","none","none","democrat","no",1,"Research Assistant ","no","yes","no","neither","disagree_little","disagree_little","disagree_moderate",NA,24,"green_frog","nicholas_gannon_baby","slightly more left",3903,"United States of America",NA,-1
"25","d_us_pilot_A","d_us_pilot_A_1","seeing_things",NA,NA,"us",21,"male","yes_only","asian_eastAsian","college_bachDegree","none","none","democrat","no",1,"Research Assistant ","no","yes","no","neither","disagree_little","disagree_little","disagree_moderate",NA,25,"toby_chimp","sharon_harvey_woman","much more right",2245,"United States of America",NA,2
"26","d_us_pilot_A","d_us_pilot_A_1","seeing_things",NA,NA,"us",21,"male","yes_only","asian_eastAsian","college_bachDegree","none","none","democrat","no",1,"Research Assistant ","no","yes","no","neither","disagree_little","disagree_little","disagree_moderate",NA,26,"gerald_schiff_pvs","samantha_hill_girl","slightly more right",3192,"United States of America",NA,1
"27","d_us_pilot_A","d_us_pilot_A_1","seeing_things",NA,NA,"us",21,"male","yes_only","asian_eastAsian","college_bachDegree","none","none","democrat","no",1,"Research Assistant ","no","yes","no","neither","disagree_little","disagree_little","disagree_moderate",NA,27,"charlie_dog","todd_billingsley_man","much more right",1839,"United States of America",NA,2
"28","d_us_pilot_A","d_us_pilot_A_1","seeing_things",NA,NA,"us",21,"male","yes_only","asian_eastAsian","college_bachDegree","none","none","democrat","no",1,"Research Assistant ","no","yes","no","neither","disagree_little","disagree_little","disagree_moderate",NA,28,"samantha_hill_girl","kismet_robot","much more left",1910,"United States of America",NA,-2
"29","d_us_pilot_A","d_us_pilot_A_1","seeing_things",NA,NA,"us",21,"male","yes_only","asian_eastAsian","college_bachDegree","none","none","democrat","no",1,"Research Assistant ","no","yes","no","neither","disagree_little","disagree_little","disagree_moderate",NA,29,"charlie_dog","gerald_schiff_pvs","much more left",1655,"United States of America",NA,-2
"30","d_us_pilot_A","d_us_pilot_A_1","seeing_things",NA,NA,"us",21,"male","yes_only","asian_eastAsian","college_bachDegree","none","none","democrat","no",1,"Research Assistant ","no","yes","no","neither","disagree_little","disagree_little","disagree_moderate",NA,30,"kismet_robot","nicholas_gannon_baby","much more right",3094,"United States of America",NA,2
"31","d_us_pilot_A","d_us_pilot_A_1","seeing_things",NA,NA,"us",21,"male","yes_only","asian_eastAsian","college_bachDegree","none","none","democrat","no",1,"Research Assistant ","no","yes","no","neither","disagree_little","disagree_little","disagree_moderate",NA,31,"god","you","much more left",2607,"United States of America",NA,-2
"32","d_us_pilot_A","d_us_pilot_A_1","seeing_things",NA,NA,"us",21,"male","yes_only","asian_eastAsian","college_bachDegree","none","none","democrat","no",1,"Research Assistant ","no","yes","no","neither","disagree_little","disagree_little","disagree_moderate",NA,32,"kismet_robot","charlie_dog","slightly more right",12819,"United States of America",NA,1
"33","d_us_pilot_A","d_us_pilot_A_1","seeing_things",NA,NA,"us",21,"male","yes_only","asian_eastAsian","college_bachDegree","none","none","democrat","no",1,"Research Assistant ","no","yes","no","neither","disagree_little","disagree_little","disagree_moderate",NA,33,"green_frog","gerald_schiff_pvs","slightly more left",2979,"United States of America",NA,-1
"34","d_us_pilot_A","d_us_pilot_A_1","seeing_things",NA,NA,"us",21,"male","yes_only","asian_eastAsian","college_bachDegree","none","none","democrat","no",1,"Research Assistant ","no","yes","no","neither","disagree_little","disagree_little","disagree_moderate",NA,34,"god","delores_gleitman_deceased","much more left",1493,"United States of America",NA,-2
"35","d_us_pilot_A","d_us_pilot_A_1","seeing_things",NA,NA,"us",21,"male","yes_only","asian_eastAsian","college_bachDegree","none","none","democrat","no",1,"Research Assistant ","no","yes","no","neither","disagree_little","disagree_little","disagree_moderate",NA,35,"kismet_robot","toby_chimp","slightly more right",1686,"United States of America",NA,1
"36","d_us_pilot_A","d_us_pilot_A_1","seeing_things",NA,NA,"us",21,"male","yes_only","asian_eastAsian","college_bachDegree","none","none","democrat","no",1,"Research Assistant ","no","yes","no","neither","disagree_little","disagree_little","disagree_moderate",NA,36,"charlie_dog","you","much more right",6647,"United States of America",NA,2
"37","d_us_pilot_A","d_us_pilot_A_1","seeing_things",NA,NA,"us",21,"male","yes_only","asian_eastAsian","college_bachDegree","none","none","democrat","no",1,"Research Assistant ","no","yes","no","neither","disagree_little","disagree_little","disagree_moderate",NA,37,"gerald_schiff_pvs","toby_chimp","much more right",2598,"United States of America",NA,2
"38","d_us_pilot_A","d_us_pilot_A_1","seeing_things",NA,NA,"us",21,"male","yes_only","asian_eastAsian","college_bachDegree","none","none","democrat","no",1,"Research Assistant ","no","yes","no","neither","disagree_little","disagree_little","disagree_moderate",NA,38,"green_frog","todd_billingsley_man","much more right",1488,"United States of America",NA,2
"39","d_us_pilot_A","d_us_pilot_A_1","seeing_things",NA,NA,"us",21,"male","yes_only","asian_eastAsian","college_bachDegree","none","none","democrat","no",1,"Research Assistant ","no","yes","no","neither","disagree_little","disagree_little","disagree_moderate",NA,39,"god","sharon_harvey_woman","much more left",1736,"United States of America",NA,-2
"40","d_us_pilot_A","d_us_pilot_A_1","seeing_things",NA,NA,"us",21,"male","yes_only","asian_eastAsian","college_bachDegree","none","none","democrat","no",1,"Research Assistant ","no","yes","no","neither","disagree_little","disagree_little","disagree_moderate",NA,40,"green_frog","you","much more right",1701,"United States of America",NA,2
"41","d_us_pilot_A","d_us_pilot_A_1","seeing_things",NA,NA,"us",21,"male","yes_only","asian_eastAsian","college_bachDegree","none","none","democrat","no",1,"Research Assistant ","no","yes","no","neither","disagree_little","disagree_little","disagree_moderate",NA,41,"delores_gleitman_deceased","sharon_harvey_woman","much more right",1119,"United States of America",NA,2
"42","d_us_pilot_A","d_us_pilot_A_1","seeing_things",NA,NA,"us",21,"male","yes_only","asian_eastAsian","college_bachDegree","none","none","democrat","no",1,"Research Assistant ","no","yes","no","neither","disagree_little","disagree_little","disagree_moderate",NA,42,"charlie_dog","god","much more right",3095,"United States of America",NA,2
"43","d_us_pilot_A","d_us_pilot_A_1","seeing_things",NA,NA,"us",21,"male","yes_only","asian_eastAsian","college_bachDegree","none","none","democrat","no",1,"Research Assistant ","no","yes","no","neither","disagree_little","disagree_little","disagree_moderate",NA,43,"delores_gleitman_deceased","you","much more right",1401,"United States of America",NA,2
"44","d_us_pilot_A","d_us_pilot_A_1","seeing_things",NA,NA,"us",21,"male","yes_only","asian_eastAsian","college_bachDegree","none","none","democrat","no",1,"Research Assistant ","no","yes","no","neither","disagree_little","disagree_little","disagree_moderate",NA,44,"fetus","samantha_hill_girl","much more right",1732,"United States of America",NA,2
"45","d_us_pilot_A","d_us_pilot_A_1","seeing_things",NA,NA,"us",21,"male","yes_only","asian_eastAsian","college_bachDegree","none","none","democrat","no",1,"Research Assistant ","no","yes","no","neither","disagree_little","disagree_little","disagree_moderate",NA,45,"gerald_schiff_pvs","sharon_harvey_woman","much more right",1455,"United States of America",NA,2
"46","d_us_pilot_A","d_us_pilot_A_1","seeing_things",NA,NA,"us",21,"male","yes_only","asian_eastAsian","college_bachDegree","none","none","democrat","no",1,"Research Assistant ","no","yes","no","neither","disagree_little","disagree_little","disagree_moderate",NA,46,"todd_billingsley_man","toby_chimp","much more right",1519,"United States of America",NA,2
"47","d_us_pilot_A","d_us_pilot_A_1","seeing_things",NA,NA,"us",21,"male","yes_only","asian_eastAsian","college_bachDegree","none","none","democrat","no",1,"Research Assistant ","no","yes","no","neither","disagree_little","disagree_little","disagree_moderate",NA,47,"toby_chimp","samantha_hill_girl","slightly more right",1783,"United States of America",NA,1
"48","d_us_pilot_A","d_us_pilot_A_1","seeing_things",NA,NA,"us",21,"male","yes_only","asian_eastAsian","college_bachDegree","none","none","democrat","no",1,"Research Assistant ","no","yes","no","neither","disagree_little","disagree_little","disagree_moderate",NA,48,"fetus","todd_billingsley_man","much more right",1879,"United States of America",NA,2
"49","d_us_pilot_A","d_us_pilot_A_1","seeing_things",NA,NA,"us",21,"male","yes_only","asian_eastAsian","college_bachDegree","none","none","democrat","no",1,"Research Assistant ","no","yes","no","neither","disagree_little","disagree_little","disagree_moderate",NA,49,"green_frog","toby_chimp","slightly more right",2542,"United States of America",NA,1
"50","d_us_pilot_A","d_us_pilot_A_1","seeing_things",NA,NA,"us",21,"male","yes_only","asian_eastAsian","college_bachDegree","none","none","democrat","no",1,"Research Assistant ","no","yes","no","neither","disagree_little","disagree_little","disagree_moderate",NA,50,"gerald_schiff_pvs","todd_billingsley_man","much more right",1334,"United States of America",NA,2
"51","d_us_pilot_A","d_us_pilot_A_1","seeing_things",NA,NA,"us",21,"male","yes_only","asian_eastAsian","college_bachDegree","none","none","democrat","no",1,"Research Assistant ","no","yes","no","neither","disagree_little","disagree_little","disagree_moderate",NA,51,"nicholas_gannon_baby","todd_billingsley_man","much more right",1134,"United States of America",NA,2
"52","d_us_pilot_A","d_us_pilot_A_1","seeing_things",NA,NA,"us",21,"male","yes_only","asian_eastAsian","college_bachDegree","none","none","democrat","no",1,"Research Assistant ","no","yes","no","neither","disagree_little","disagree_little","disagree_moderate",NA,52,"fetus","green_frog","slightly more right",3350,"United States of America",NA,1
"53","d_us_pilot_A","d_us_pilot_A_1","seeing_things",NA,NA,"us",21,"male","yes_only","asian_eastAsian","college_bachDegree","none","none","democrat","no",1,"Research Assistant ","no","yes","no","neither","disagree_little","disagree_little","disagree_moderate",NA,53,"samantha_hill_girl","nicholas_gannon_baby","slightly more left",2639,"United States of America",NA,-1
"54","d_us_pilot_A","d_us_pilot_A_1","seeing_things",NA,NA,"us",21,"male","yes_only","asian_eastAsian","college_bachDegree","none","none","democrat","no",1,"Research Assistant ","no","yes","no","neither","disagree_little","disagree_little","disagree_moderate",NA,54,"charlie_dog","fetus","much more left",1648,"United States of America",NA,-2
"55","d_us_pilot_A","d_us_pilot_A_1","seeing_things",NA,NA,"us",21,"male","yes_only","asian_eastAsian","college_bachDegree","none","none","democrat","no",1,"Research Assistant ","no","yes","no","neither","disagree_little","disagree_little","disagree_moderate",NA,55,"kismet_robot","you","much more right",1823,"United States of America",NA,2
"56","d_us_pilot_A","d_us_pilot_A_1","seeing_things",NA,NA,"us",21,"male","yes_only","asian_eastAsian","college_bachDegree","none","none","democrat","no",1,"Research Assistant ","no","yes","no","neither","disagree_little","disagree_little","disagree_moderate",NA,56,"green_frog","kismet_robot","slightly more left",2591,"United States of America",NA,-1
"57","d_us_pilot_A","d_us_pilot_A_1","seeing_things",NA,NA,"us",21,"male","yes_only","asian_eastAsian","college_bachDegree","none","none","democrat","no",1,"Research Assistant ","no","yes","no","neither","disagree_little","disagree_little","disagree_moderate",NA,57,"todd_billingsley_man","kismet_robot","much more left",1543,"United States of America",NA,-2
"58","d_us_pilot_A","d_us_pilot_A_1","seeing_things",NA,NA,"us",21,"male","yes_only","asian_eastAsian","college_bachDegree","none","none","democrat","no",1,"Research Assistant ","no","yes","no","neither","disagree_little","disagree_little","disagree_moderate",NA,58,"nicholas_gannon_baby","delores_gleitman_deceased","slightly more left",2790,"United States of America",NA,-1
"59","d_us_pilot_A","d_us_pilot_A_1","seeing_things",NA,NA,"us",21,"male","yes_only","asian_eastAsian","college_bachDegree","none","none","democrat","no",1,"Research Assistant ","no","yes","no","neither","disagree_little","disagree_little","disagree_moderate",NA,59,"charlie_dog","toby_chimp","both equally",5023,"United States of America",NA,0
"60","d_us_pilot_A","d_us_pilot_A_1","seeing_things",NA,NA,"us",21,"male","yes_only","asian_eastAsian","college_bachDegree","none","none","democrat","no",1,"Research Assistant ","no","yes","no","neither","disagree_little","disagree_little","disagree_moderate",NA,60,"toby_chimp","you","much more right",1599,"United States of America",NA,2
"61","d_us_pilot_A","d_us_pilot_A_1","seeing_things",NA,NA,"us",21,"male","yes_only","asian_eastAsian","college_bachDegree","none","none","democrat","no",1,"Research Assistant ","no","yes","no","neither","disagree_little","disagree_little","disagree_moderate",NA,61,"fetus","kismet_robot","both equally",2583,"United States of America",NA,0
"62","d_us_pilot_A","d_us_pilot_A_1","seeing_things",NA,NA,"us",21,"male","yes_only","asian_eastAsian","college_bachDegree","none","none","democrat","no",1,"Research Assistant ","no","yes","no","neither","disagree_little","disagree_little","disagree_moderate",NA,62,"green_frog","samantha_hill_girl","slightly more right",3038,"United States of America",NA,1
"63","d_us_pilot_A","d_us_pilot_A_1","seeing_things",NA,NA,"us",21,"male","yes_only","asian_eastAsian","college_bachDegree","none","none","democrat","no",1,"Research Assistant ","no","yes","no","neither","disagree_little","disagree_little","disagree_moderate",NA,63,"charlie_dog","delores_gleitman_deceased","much more left",2054,"United States of America",NA,-2
"64","d_us_pilot_A","d_us_pilot_A_1","seeing_things",NA,NA,"us",21,"male","yes_only","asian_eastAsian","college_bachDegree","none","none","democrat","no",1,"Research Assistant ","no","yes","no","neither","disagree_little","disagree_little","disagree_moderate",NA,64,"gerald_schiff_pvs","you","much more right",1344,"United States of America",NA,2
"65","d_us_pilot_A","d_us_pilot_A_1","seeing_things",NA,NA,"us",21,"male","yes_only","asian_eastAsian","college_bachDegree","none","none","democrat","no",1,"Research Assistant ","no","yes","no","neither","disagree_little","disagree_little","disagree_moderate",NA,65,"you","samantha_hill_girl","much more left",1231,"United States of America",NA,-2
"66","d_us_pilot_A","d_us_pilot_A_1","seeing_things",NA,NA,"us",21,"male","yes_only","asian_eastAsian","college_bachDegree","none","none","democrat","no",1,"Research Assistant ","no","yes","no","neither","disagree_little","disagree_little","disagree_moderate",NA,66,"samantha_hill_girl","sharon_harvey_woman","much more right",1253,"United States of America",NA,2
"67","d_us_pilot_A","d_us_pilot_A_1","seeing_things",NA,NA,"us",21,"male","yes_only","asian_eastAsian","college_bachDegree","none","none","democrat","no",1,"Research Assistant ","no","yes","no","neither","disagree_little","disagree_little","disagree_moderate",NA,67,"charlie_dog","samantha_hill_girl","slightly more right",2247,"United States of America",NA,1
"68","d_us_pilot_A","d_us_pilot_A_1","seeing_things",NA,NA,"us",21,"male","yes_only","asian_eastAsian","college_bachDegree","none","none","democrat","no",1,"Research Assistant ","no","yes","no","neither","disagree_little","disagree_little","disagree_moderate",NA,68,"charlie_dog","nicholas_gannon_baby","slightly more left",2056,"United States of America",NA,-1
"69","d_us_pilot_A","d_us_pilot_A_1","seeing_things",NA,NA,"us",21,"male","yes_only","asian_eastAsian","college_bachDegree","none","none","democrat","no",1,"Research Assistant ","no","yes","no","neither","disagree_little","disagree_little","disagree_moderate",NA,69,"kismet_robot","god","much more right",1359,"United States of America",NA,2
"70","d_us_pilot_A","d_us_pilot_A_1","seeing_things",NA,NA,"us",21,"male","yes_only","asian_eastAsian","college_bachDegree","none","none","democrat","no",1,"Research Assistant ","no","yes","no","neither","disagree_little","disagree_little","disagree_moderate",NA,70,"samantha_hill_girl","god","much more right",1014,"United States of America",NA,2
"71","d_us_pilot_A","d_us_pilot_A_1","seeing_things",NA,NA,"us",21,"male","yes_only","asian_eastAsian","college_bachDegree","none","none","democrat","no",1,"Research Assistant ","no","yes","no","neither","disagree_little","disagree_little","disagree_moderate",NA,71,"gerald_schiff_pvs","kismet_robot","both equally",2591,"United States of America",NA,0
"72","d_us_pilot_A","d_us_pilot_A_1","seeing_things",NA,NA,"us",21,"male","yes_only","asian_eastAsian","college_bachDegree","none","none","democrat","no",1,"Research Assistant ","no","yes","no","neither","disagree_little","disagree_little","disagree_moderate",NA,72,"delores_gleitman_deceased","kismet_robot","both equally",1719,"United States of America",NA,0
"73","d_us_pilot_A","d_us_pilot_A_1","seeing_things",NA,NA,"us",21,"male","yes_only","asian_eastAsian","college_bachDegree","none","none","democrat","no",1,"Research Assistant ","no","yes","no","neither","disagree_little","disagree_little","disagree_moderate",NA,73,"fetus","delores_gleitman_deceased","both equally",1919,"United States of America",NA,0
"74","d_us_pilot_A","d_us_pilot_A_1","seeing_things",NA,NA,"us",21,"male","yes_only","asian_eastAsian","college_bachDegree","none","none","democrat","no",1,"Research Assistant ","no","yes","no","neither","disagree_little","disagree_little","disagree_moderate",NA,74,"sharon_harvey_woman","nicholas_gannon_baby","much more left",1663,"United States of America",NA,-2
"75","d_us_pilot_A","d_us_pilot_A_1","seeing_things",NA,NA,"us",21,"male","yes_only","asian_eastAsian","college_bachDegree","none","none","democrat","no",1,"Research Assistant ","no","yes","no","neither","disagree_little","disagree_little","disagree_moderate",NA,75,"delores_gleitman_deceased","green_frog","slightly more right",2263,"United States of America",NA,1
"76","d_us_pilot_A","d_us_pilot_A_1","seeing_things",NA,NA,"us",21,"male","yes_only","asian_eastAsian","college_bachDegree","none","none","democrat","no",1,"Research Assistant ","no","yes","no","neither","disagree_little","disagree_little","disagree_moderate",NA,76,"fetus","toby_chimp","much more right",2006,"United States of America",NA,2
"77","d_us_pilot_A","d_us_pilot_A_1","seeing_things",NA,NA,"us",21,"male","yes_only","asian_eastAsian","college_bachDegree","none","none","democrat","no",1,"Research Assistant ","no","yes","no","neither","disagree_little","disagree_little","disagree_moderate",NA,77,"sharon_harvey_woman","todd_billingsley_man","both equally",1991,"United States of America",NA,0
"78","d_us_pilot_A","d_us_pilot_A_1","seeing_things",NA,NA,"us",21,"male","yes_only","asian_eastAsian","college_bachDegree","none","none","democrat","no",1,"Research Assistant ","no","yes","no","neither","disagree_little","disagree_little","disagree_moderate",NA,78,"delores_gleitman_deceased","todd_billingsley_man","much more right",1079,"United States of America",NA,2
"79","d_us_pilot_A","d_us_pilot_A_2","perceiving_depth",NA,NA,"us",25,"female","yes_only","white","college_bachDegree","christianity_catholic","other","democrat","yes",1,"ASL Interpreter","no","no","no","disagree_strong","agree_moderate","disagree_little","disagree_moderate","I thought it was a good study and I hope my responses are helpful to your results. ",1,"sharon_harvey_woman","god","much more right",3154,"United States",NA,2
"80","d_us_pilot_A","d_us_pilot_A_2","perceiving_depth",NA,NA,"us",25,"female","yes_only","white","college_bachDegree","christianity_catholic","other","democrat","yes",1,"ASL Interpreter","no","no","no","disagree_strong","agree_moderate","disagree_little","disagree_moderate","I thought it was a good study and I hope my responses are helpful to your results. ",2,"kismet_robot","samantha_hill_girl","slightly more right",2331,"United States",NA,1
"81","d_us_pilot_A","d_us_pilot_A_2","perceiving_depth",NA,NA,"us",25,"female","yes_only","white","college_bachDegree","christianity_catholic","other","democrat","yes",1,"ASL Interpreter","no","no","no","disagree_strong","agree_moderate","disagree_little","disagree_moderate","I thought it was a good study and I hope my responses are helpful to your results. ",3,"samantha_hill_girl","god","much more right",1271,"United States",NA,2
"82","d_us_pilot_A","d_us_pilot_A_2","perceiving_depth",NA,NA,"us",25,"female","yes_only","white","college_bachDegree","christianity_catholic","other","democrat","yes",1,"ASL Interpreter","no","no","no","disagree_strong","agree_moderate","disagree_little","disagree_moderate","I thought it was a good study and I hope my responses are helpful to your results. ",4,"kismet_robot","sharon_harvey_woman","much more right",1618,"United States",NA,2
"83","d_us_pilot_A","d_us_pilot_A_2","perceiving_depth",NA,NA,"us",25,"female","yes_only","white","college_bachDegree","christianity_catholic","other","democrat","yes",1,"ASL Interpreter","no","no","no","disagree_strong","agree_moderate","disagree_little","disagree_moderate","I thought it was a good study and I hope my responses are helpful to your results. ",5,"charlie_dog","fetus","much more left",2549,"United States",NA,-2
"84","d_us_pilot_A","d_us_pilot_A_2","perceiving_depth",NA,NA,"us",25,"female","yes_only","white","college_bachDegree","christianity_catholic","other","democrat","yes",1,"ASL Interpreter","no","no","no","disagree_strong","agree_moderate","disagree_little","disagree_moderate","I thought it was a good study and I hope my responses are helpful to your results. ",6,"samantha_hill_girl","fetus","much more left",1541,"United States",NA,-2
"85","d_us_pilot_A","d_us_pilot_A_2","perceiving_depth",NA,NA,"us",25,"female","yes_only","white","college_bachDegree","christianity_catholic","other","democrat","yes",1,"ASL Interpreter","no","no","no","disagree_strong","agree_moderate","disagree_little","disagree_moderate","I thought it was a good study and I hope my responses are helpful to your results. ",7,"gerald_schiff_pvs","charlie_dog","slightly more right",2228,"United States",NA,1
"86","d_us_pilot_A","d_us_pilot_A_2","perceiving_depth",NA,NA,"us",25,"female","yes_only","white","college_bachDegree","christianity_catholic","other","democrat","yes",1,"ASL Interpreter","no","no","no","disagree_strong","agree_moderate","disagree_little","disagree_moderate","I thought it was a good study and I hope my responses are helpful to your results. ",8,"samantha_hill_girl","delores_gleitman_deceased","much more left",2526,"United States",NA,-2
"87","d_us_pilot_A","d_us_pilot_A_2","perceiving_depth",NA,NA,"us",25,"female","yes_only","white","college_bachDegree","christianity_catholic","other","democrat","yes",1,"ASL Interpreter","no","no","no","disagree_strong","agree_moderate","disagree_little","disagree_moderate","I thought it was a good study and I hope my responses are helpful to your results. ",9,"gerald_schiff_pvs","god","much more left",60,"United States",NA,-2
"88","d_us_pilot_A","d_us_pilot_A_2","perceiving_depth",NA,NA,"us",25,"female","yes_only","white","college_bachDegree","christianity_catholic","other","democrat","yes",1,"ASL Interpreter","no","no","no","disagree_strong","agree_moderate","disagree_little","disagree_moderate","I thought it was a good study and I hope my responses are helpful to your results. ",10,"green_frog","nicholas_gannon_baby","both equally",5231,"United States",NA,0
"89","d_us_pilot_A","d_us_pilot_A_2","perceiving_depth",NA,NA,"us",25,"female","yes_only","white","college_bachDegree","christianity_catholic","other","democrat","yes",1,"ASL Interpreter","no","no","no","disagree_strong","agree_moderate","disagree_little","disagree_moderate","I thought it was a good study and I hope my responses are helpful to your results. ",11,"samantha_hill_girl","todd_billingsley_man","both equally",68,"United States",NA,0
"90","d_us_pilot_A","d_us_pilot_A_2","perceiving_depth",NA,NA,"us",25,"female","yes_only","white","college_bachDegree","christianity_catholic","other","democrat","yes",1,"ASL Interpreter","no","no","no","disagree_strong","agree_moderate","disagree_little","disagree_moderate","I thought it was a good study and I hope my responses are helpful to your results. ",12,"samantha_hill_girl","toby_chimp","both equally",2984,"United States",NA,0
"91","d_us_pilot_A","d_us_pilot_A_2","perceiving_depth",NA,NA,"us",25,"female","yes_only","white","college_bachDegree","christianity_catholic","other","democrat","yes",1,"ASL Interpreter","no","no","no","disagree_strong","agree_moderate","disagree_little","disagree_moderate","I thought it was a good study and I hope my responses are helpful to your results. ",13,"charlie_dog","kismet_robot","slightly more left",4769,"United States",NA,-1
"92","d_us_pilot_A","d_us_pilot_A_2","perceiving_depth",NA,NA,"us",25,"female","yes_only","white","college_bachDegree","christianity_catholic","other","democrat","yes",1,"ASL Interpreter","no","no","no","disagree_strong","agree_moderate","disagree_little","disagree_moderate","I thought it was a good study and I hope my responses are helpful to your results. ",14,"samantha_hill_girl","nicholas_gannon_baby","much more left",3001,"United States",NA,-2
"93","d_us_pilot_A","d_us_pilot_A_2","perceiving_depth",NA,NA,"us",25,"female","yes_only","white","college_bachDegree","christianity_catholic","other","democrat","yes",1,"ASL Interpreter","no","no","no","disagree_strong","agree_moderate","disagree_little","disagree_moderate","I thought it was a good study and I hope my responses are helpful to your results. ",15,"charlie_dog","toby_chimp","slightly more right",1722,"United States",NA,1
"94","d_us_pilot_A","d_us_pilot_A_2","perceiving_depth",NA,NA,"us",25,"female","yes_only","white","college_bachDegree","christianity_catholic","other","democrat","yes",1,"ASL Interpreter","no","no","no","disagree_strong","agree_moderate","disagree_little","disagree_moderate","I thought it was a good study and I hope my responses are helpful to your results. ",16,"god","todd_billingsley_man","much more left",2787,"United States",NA,-2
"95","d_us_pilot_A","d_us_pilot_A_2","perceiving_depth",NA,NA,"us",25,"female","yes_only","white","college_bachDegree","christianity_catholic","other","democrat","yes",1,"ASL Interpreter","no","no","no","disagree_strong","agree_moderate","disagree_little","disagree_moderate","I thought it was a good study and I hope my responses are helpful to your results. ",17,"delores_gleitman_deceased","green_frog","slightly more right",3032,"United States",NA,1
"96","d_us_pilot_A","d_us_pilot_A_2","perceiving_depth",NA,NA,"us",25,"female","yes_only","white","college_bachDegree","christianity_catholic","other","democrat","yes",1,"ASL Interpreter","no","no","no","disagree_strong","agree_moderate","disagree_little","disagree_moderate","I thought it was a good study and I hope my responses are helpful to your results. ",18,"green_frog","god","much more right",1790,"United States",NA,2
"97","d_us_pilot_A","d_us_pilot_A_2","perceiving_depth",NA,NA,"us",25,"female","yes_only","white","college_bachDegree","christianity_catholic","other","democrat","yes",1,"ASL Interpreter","no","no","no","disagree_strong","agree_moderate","disagree_little","disagree_moderate","I thought it was a good study and I hope my responses are helpful to your results. ",19,"you","gerald_schiff_pvs","much more left",1854,"United States",NA,-2
"98","d_us_pilot_A","d_us_pilot_A_2","perceiving_depth",NA,NA,"us",25,"female","yes_only","white","college_bachDegree","christianity_catholic","other","democrat","yes",1,"ASL Interpreter","no","no","no","disagree_strong","agree_moderate","disagree_little","disagree_moderate","I thought it was a good study and I hope my responses are helpful to your results. ",20,"gerald_schiff_pvs","delores_gleitman_deceased","slightly more left",3124,"United States",NA,-1
"99","d_us_pilot_A","d_us_pilot_A_2","perceiving_depth",NA,NA,"us",25,"female","yes_only","white","college_bachDegree","christianity_catholic","other","democrat","yes",1,"ASL Interpreter","no","no","no","disagree_strong","agree_moderate","disagree_little","disagree_moderate","I thought it was a good study and I hope my responses are helpful to your results. ",21,"nicholas_gannon_baby","todd_billingsley_man","much more right",2242,"United States",NA,2
"100","d_us_pilot_A","d_us_pilot_A_2","perceiving_depth",NA,NA,"us",25,"female","yes_only","white","college_bachDegree","christianity_catholic","other","democrat","yes",1,"ASL Interpreter","no","no","no","disagree_strong","agree_moderate","disagree_little","disagree_moderate","I thought it was a good study and I hope my responses are helpful to your results. ",22,"you","god","much more right",1626,"United States",NA,2
"101","d_us_pilot_A","d_us_pilot_A_2","perceiving_depth",NA,NA,"us",25,"female","yes_only","white","college_bachDegree","christianity_catholic","other","democrat","yes",1,"ASL Interpreter","no","no","no","disagree_strong","agree_moderate","disagree_little","disagree_moderate","I thought it was a good study and I hope my responses are helpful to your results. ",23,"todd_billingsley_man","sharon_harvey_woman","both equally",1853,"United States",NA,0
"102","d_us_pilot_A","d_us_pilot_A_2","perceiving_depth",NA,NA,"us",25,"female","yes_only","white","college_bachDegree","christianity_catholic","other","democrat","yes",1,"ASL Interpreter","no","no","no","disagree_strong","agree_moderate","disagree_little","disagree_moderate","I thought it was a good study and I hope my responses are helpful to your results. ",24,"charlie_dog","samantha_hill_girl","slightly more right",2532,"United States",NA,1
"103","d_us_pilot_A","d_us_pilot_A_2","perceiving_depth",NA,NA,"us",25,"female","yes_only","white","college_bachDegree","christianity_catholic","other","democrat","yes",1,"ASL Interpreter","no","no","no","disagree_strong","agree_moderate","disagree_little","disagree_moderate","I thought it was a good study and I hope my responses are helpful to your results. ",25,"kismet_robot","todd_billingsley_man","much more right",1462,"United States",NA,2
"104","d_us_pilot_A","d_us_pilot_A_2","perceiving_depth",NA,NA,"us",25,"female","yes_only","white","college_bachDegree","christianity_catholic","other","democrat","yes",1,"ASL Interpreter","no","no","no","disagree_strong","agree_moderate","disagree_little","disagree_moderate","I thought it was a good study and I hope my responses are helpful to your results. ",26,"green_frog","you","much more right",1145,"United States",NA,2
"105","d_us_pilot_A","d_us_pilot_A_2","perceiving_depth",NA,NA,"us",25,"female","yes_only","white","college_bachDegree","christianity_catholic","other","democrat","yes",1,"ASL Interpreter","no","no","no","disagree_strong","agree_moderate","disagree_little","disagree_moderate","I thought it was a good study and I hope my responses are helpful to your results. ",27,"kismet_robot","nicholas_gannon_baby","slightly more right",1526,"United States",NA,1
"106","d_us_pilot_A","d_us_pilot_A_2","perceiving_depth",NA,NA,"us",25,"female","yes_only","white","college_bachDegree","christianity_catholic","other","democrat","yes",1,"ASL Interpreter","no","no","no","disagree_strong","agree_moderate","disagree_little","disagree_moderate","I thought it was a good study and I hope my responses are helpful to your results. ",28,"charlie_dog","you","much more right",1446,"United States",NA,2
"107","d_us_pilot_A","d_us_pilot_A_2","perceiving_depth",NA,NA,"us",25,"female","yes_only","white","college_bachDegree","christianity_catholic","other","democrat","yes",1,"ASL Interpreter","no","no","no","disagree_strong","agree_moderate","disagree_little","disagree_moderate","I thought it was a good study and I hope my responses are helpful to your results. ",29,"toby_chimp","sharon_harvey_woman","much more right",2383,"United States",NA,2
"108","d_us_pilot_A","d_us_pilot_A_2","perceiving_depth",NA,NA,"us",25,"female","yes_only","white","college_bachDegree","christianity_catholic","other","democrat","yes",1,"ASL Interpreter","no","no","no","disagree_strong","agree_moderate","disagree_little","disagree_moderate","I thought it was a good study and I hope my responses are helpful to your results. ",30,"sharon_harvey_woman","nicholas_gannon_baby","much more left",1970,"United States",NA,-2
"109","d_us_pilot_A","d_us_pilot_A_2","perceiving_depth",NA,NA,"us",25,"female","yes_only","white","college_bachDegree","christianity_catholic","other","democrat","yes",1,"ASL Interpreter","no","no","no","disagree_strong","agree_moderate","disagree_little","disagree_moderate","I thought it was a good study and I hope my responses are helpful to your results. ",31,"kismet_robot","delores_gleitman_deceased","much more left",83,"United States",NA,-2
"110","d_us_pilot_A","d_us_pilot_A_2","perceiving_depth",NA,NA,"us",25,"female","yes_only","white","college_bachDegree","christianity_catholic","other","democrat","yes",1,"ASL Interpreter","no","no","no","disagree_strong","agree_moderate","disagree_little","disagree_moderate","I thought it was a good study and I hope my responses are helpful to your results. ",32,"god","delores_gleitman_deceased","much more left",1627,"United States",NA,-2
"111","d_us_pilot_A","d_us_pilot_A_2","perceiving_depth",NA,NA,"us",25,"female","yes_only","white","college_bachDegree","christianity_catholic","other","democrat","yes",1,"ASL Interpreter","no","no","no","disagree_strong","agree_moderate","disagree_little","disagree_moderate","I thought it was a good study and I hope my responses are helpful to your results. ",33,"gerald_schiff_pvs","nicholas_gannon_baby","slightly more right",2813,"United States",NA,1
"112","d_us_pilot_A","d_us_pilot_A_2","perceiving_depth",NA,NA,"us",25,"female","yes_only","white","college_bachDegree","christianity_catholic","other","democrat","yes",1,"ASL Interpreter","no","no","no","disagree_strong","agree_moderate","disagree_little","disagree_moderate","I thought it was a good study and I hope my responses are helpful to your results. ",34,"you","samantha_hill_girl","much more left",1767,"United States",NA,-2
"113","d_us_pilot_A","d_us_pilot_A_2","perceiving_depth",NA,NA,"us",25,"female","yes_only","white","college_bachDegree","christianity_catholic","other","democrat","yes",1,"ASL Interpreter","no","no","no","disagree_strong","agree_moderate","disagree_little","disagree_moderate","I thought it was a good study and I hope my responses are helpful to your results. ",35,"todd_billingsley_man","gerald_schiff_pvs","much more left",76,"United States",NA,-2
"114","d_us_pilot_A","d_us_pilot_A_2","perceiving_depth",NA,NA,"us",25,"female","yes_only","white","college_bachDegree","christianity_catholic","other","democrat","yes",1,"ASL Interpreter","no","no","no","disagree_strong","agree_moderate","disagree_little","disagree_moderate","I thought it was a good study and I hope my responses are helpful to your results. ",36,"gerald_schiff_pvs","sharon_harvey_woman","much more right",1680,"United States",NA,2
"115","d_us_pilot_A","d_us_pilot_A_2","perceiving_depth",NA,NA,"us",25,"female","yes_only","white","college_bachDegree","christianity_catholic","other","democrat","yes",1,"ASL Interpreter","no","no","no","disagree_strong","agree_moderate","disagree_little","disagree_moderate","I thought it was a good study and I hope my responses are helpful to your results. ",37,"green_frog","samantha_hill_girl","slightly more right",1380,"United States",NA,1
"116","d_us_pilot_A","d_us_pilot_A_2","perceiving_depth",NA,NA,"us",25,"female","yes_only","white","college_bachDegree","christianity_catholic","other","democrat","yes",1,"ASL Interpreter","no","no","no","disagree_strong","agree_moderate","disagree_little","disagree_moderate","I thought it was a good study and I hope my responses are helpful to your results. ",38,"kismet_robot","fetus","slightly more left",2133,"United States",NA,-1
"117","d_us_pilot_A","d_us_pilot_A_2","perceiving_depth",NA,NA,"us",25,"female","yes_only","white","college_bachDegree","christianity_catholic","other","democrat","yes",1,"ASL Interpreter","no","no","no","disagree_strong","agree_moderate","disagree_little","disagree_moderate","I thought it was a good study and I hope my responses are helpful to your results. ",39,"fetus","god","much more right",1370,"United States",NA,2
"118","d_us_pilot_A","d_us_pilot_A_2","perceiving_depth",NA,NA,"us",25,"female","yes_only","white","college_bachDegree","christianity_catholic","other","democrat","yes",1,"ASL Interpreter","no","no","no","disagree_strong","agree_moderate","disagree_little","disagree_moderate","I thought it was a good study and I hope my responses are helpful to your results. ",40,"green_frog","toby_chimp","slightly more right",1505,"United States",NA,1
"119","d_us_pilot_A","d_us_pilot_A_2","perceiving_depth",NA,NA,"us",25,"female","yes_only","white","college_bachDegree","christianity_catholic","other","democrat","yes",1,"ASL Interpreter","no","no","no","disagree_strong","agree_moderate","disagree_little","disagree_moderate","I thought it was a good study and I hope my responses are helpful to your results. ",41,"you","toby_chimp","much more left",1406,"United States",NA,-2
"120","d_us_pilot_A","d_us_pilot_A_2","perceiving_depth",NA,NA,"us",25,"female","yes_only","white","college_bachDegree","christianity_catholic","other","democrat","yes",1,"ASL Interpreter","no","no","no","disagree_strong","agree_moderate","disagree_little","disagree_moderate","I thought it was a good study and I hope my responses are helpful to your results. ",42,"you","todd_billingsley_man","both equally",1605,"United States",NA,0
"121","d_us_pilot_A","d_us_pilot_A_2","perceiving_depth",NA,NA,"us",25,"female","yes_only","white","college_bachDegree","christianity_catholic","other","democrat","yes",1,"ASL Interpreter","no","no","no","disagree_strong","agree_moderate","disagree_little","disagree_moderate","I thought it was a good study and I hope my responses are helpful to your results. ",43,"toby_chimp","delores_gleitman_deceased","slightly more left",3941,"United States",NA,-1
"122","d_us_pilot_A","d_us_pilot_A_2","perceiving_depth",NA,NA,"us",25,"female","yes_only","white","college_bachDegree","christianity_catholic","other","democrat","yes",1,"ASL Interpreter","no","no","no","disagree_strong","agree_moderate","disagree_little","disagree_moderate","I thought it was a good study and I hope my responses are helpful to your results. ",44,"fetus","gerald_schiff_pvs","both equally",2235,"United States",NA,0
"123","d_us_pilot_A","d_us_pilot_A_2","perceiving_depth",NA,NA,"us",25,"female","yes_only","white","college_bachDegree","christianity_catholic","other","democrat","yes",1,"ASL Interpreter","no","no","no","disagree_strong","agree_moderate","disagree_little","disagree_moderate","I thought it was a good study and I hope my responses are helpful to your results. ",45,"gerald_schiff_pvs","samantha_hill_girl","slightly more right",1317,"United States",NA,1
"124","d_us_pilot_A","d_us_pilot_A_2","perceiving_depth",NA,NA,"us",25,"female","yes_only","white","college_bachDegree","christianity_catholic","other","democrat","yes",1,"ASL Interpreter","no","no","no","disagree_strong","agree_moderate","disagree_little","disagree_moderate","I thought it was a good study and I hope my responses are helpful to your results. ",46,"sharon_harvey_woman","charlie_dog","much more left",1455,"United States",NA,-2
"125","d_us_pilot_A","d_us_pilot_A_2","perceiving_depth",NA,NA,"us",25,"female","yes_only","white","college_bachDegree","christianity_catholic","other","democrat","yes",1,"ASL Interpreter","no","no","no","disagree_strong","agree_moderate","disagree_little","disagree_moderate","I thought it was a good study and I hope my responses are helpful to your results. ",47,"nicholas_gannon_baby","god","much more right",1192,"United States",NA,2
"126","d_us_pilot_A","d_us_pilot_A_2","perceiving_depth",NA,NA,"us",25,"female","yes_only","white","college_bachDegree","christianity_catholic","other","democrat","yes",1,"ASL Interpreter","no","no","no","disagree_strong","agree_moderate","disagree_little","disagree_moderate","I thought it was a good study and I hope my responses are helpful to your results. ",48,"todd_billingsley_man","green_frog","much more left",1380,"United States",NA,-2
"127","d_us_pilot_A","d_us_pilot_A_2","perceiving_depth",NA,NA,"us",25,"female","yes_only","white","college_bachDegree","christianity_catholic","other","democrat","yes",1,"ASL Interpreter","no","no","no","disagree_strong","agree_moderate","disagree_little","disagree_moderate","I thought it was a good study and I hope my responses are helpful to your results. ",49,"god","charlie_dog","much more left",831,"United States",NA,-2
"128","d_us_pilot_A","d_us_pilot_A_2","perceiving_depth",NA,NA,"us",25,"female","yes_only","white","college_bachDegree","christianity_catholic","other","democrat","yes",1,"ASL Interpreter","no","no","no","disagree_strong","agree_moderate","disagree_little","disagree_moderate","I thought it was a good study and I hope my responses are helpful to your results. ",50,"delores_gleitman_deceased","todd_billingsley_man","much more right",1900,"United States",NA,2
"129","d_us_pilot_A","d_us_pilot_A_2","perceiving_depth",NA,NA,"us",25,"female","yes_only","white","college_bachDegree","christianity_catholic","other","democrat","yes",1,"ASL Interpreter","no","no","no","disagree_strong","agree_moderate","disagree_little","disagree_moderate","I thought it was a good study and I hope my responses are helpful to your results. ",51,"kismet_robot","toby_chimp","slightly more right",1316,"United States",NA,1
"130","d_us_pilot_A","d_us_pilot_A_2","perceiving_depth",NA,NA,"us",25,"female","yes_only","white","college_bachDegree","christianity_catholic","other","democrat","yes",1,"ASL Interpreter","no","no","no","disagree_strong","agree_moderate","disagree_little","disagree_moderate","I thought it was a good study and I hope my responses are helpful to your results. ",52,"you","sharon_harvey_woman","both equally",1861,"United States",NA,0
"131","d_us_pilot_A","d_us_pilot_A_2","perceiving_depth",NA,NA,"us",25,"female","yes_only","white","college_bachDegree","christianity_catholic","other","democrat","yes",1,"ASL Interpreter","no","no","no","disagree_strong","agree_moderate","disagree_little","disagree_moderate","I thought it was a good study and I hope my responses are helpful to your results. ",53,"you","fetus","much more left",1448,"United States",NA,-2
"132","d_us_pilot_A","d_us_pilot_A_2","perceiving_depth",NA,NA,"us",25,"female","yes_only","white","college_bachDegree","christianity_catholic","other","democrat","yes",1,"ASL Interpreter","no","no","no","disagree_strong","agree_moderate","disagree_little","disagree_moderate","I thought it was a good study and I hope my responses are helpful to your results. ",54,"kismet_robot","gerald_schiff_pvs","slightly more left",1970,"United States",NA,-1
"133","d_us_pilot_A","d_us_pilot_A_2","perceiving_depth",NA,NA,"us",25,"female","yes_only","white","college_bachDegree","christianity_catholic","other","democrat","yes",1,"ASL Interpreter","no","no","no","disagree_strong","agree_moderate","disagree_little","disagree_moderate","I thought it was a good study and I hope my responses are helpful to your results. ",55,"green_frog","fetus","slightly more left",1901,"United States",NA,-1
"134","d_us_pilot_A","d_us_pilot_A_2","perceiving_depth",NA,NA,"us",25,"female","yes_only","white","college_bachDegree","christianity_catholic","other","democrat","yes",1,"ASL Interpreter","no","no","no","disagree_strong","agree_moderate","disagree_little","disagree_moderate","I thought it was a good study and I hope my responses are helpful to your results. ",56,"charlie_dog","green_frog","both equally",2087,"United States",NA,0
"135","d_us_pilot_A","d_us_pilot_A_2","perceiving_depth",NA,NA,"us",25,"female","yes_only","white","college_bachDegree","christianity_catholic","other","democrat","yes",1,"ASL Interpreter","no","no","no","disagree_strong","agree_moderate","disagree_little","disagree_moderate","I thought it was a good study and I hope my responses are helpful to your results. ",57,"toby_chimp","gerald_schiff_pvs","much more left",2429,"United States",NA,-2
"136","d_us_pilot_A","d_us_pilot_A_2","perceiving_depth",NA,NA,"us",25,"female","yes_only","white","college_bachDegree","christianity_catholic","other","democrat","yes",1,"ASL Interpreter","no","no","no","disagree_strong","agree_moderate","disagree_little","disagree_moderate","I thought it was a good study and I hope my responses are helpful to your results. ",58,"fetus","todd_billingsley_man","much more right",1284,"United States",NA,2
"137","d_us_pilot_A","d_us_pilot_A_2","perceiving_depth",NA,NA,"us",25,"female","yes_only","white","college_bachDegree","christianity_catholic","other","democrat","yes",1,"ASL Interpreter","no","no","no","disagree_strong","agree_moderate","disagree_little","disagree_moderate","I thought it was a good study and I hope my responses are helpful to your results. ",59,"nicholas_gannon_baby","charlie_dog","slightly more right",1673,"United States",NA,1
"138","d_us_pilot_A","d_us_pilot_A_2","perceiving_depth",NA,NA,"us",25,"female","yes_only","white","college_bachDegree","christianity_catholic","other","democrat","yes",1,"ASL Interpreter","no","no","no","disagree_strong","agree_moderate","disagree_little","disagree_moderate","I thought it was a good study and I hope my responses are helpful to your results. ",60,"gerald_schiff_pvs","green_frog","slightly more right",1924,"United States",NA,1
"139","d_us_pilot_A","d_us_pilot_A_2","perceiving_depth",NA,NA,"us",25,"female","yes_only","white","college_bachDegree","christianity_catholic","other","democrat","yes",1,"ASL Interpreter","no","no","no","disagree_strong","agree_moderate","disagree_little","disagree_moderate","I thought it was a good study and I hope my responses are helpful to your results. ",61,"sharon_harvey_woman","delores_gleitman_deceased","much more left",2687,"United States",NA,-2
"140","d_us_pilot_A","d_us_pilot_A_2","perceiving_depth",NA,NA,"us",25,"female","yes_only","white","college_bachDegree","christianity_catholic","other","democrat","yes",1,"ASL Interpreter","no","no","no","disagree_strong","agree_moderate","disagree_little","disagree_moderate","I thought it was a good study and I hope my responses are helpful to your results. ",62,"kismet_robot","you","much more right",1207,"United States",NA,2
"141","d_us_pilot_A","d_us_pilot_A_2","perceiving_depth",NA,NA,"us",25,"female","yes_only","white","college_bachDegree","christianity_catholic","other","democrat","yes",1,"ASL Interpreter","no","no","no","disagree_strong","agree_moderate","disagree_little","disagree_moderate","I thought it was a good study and I hope my responses are helpful to your results. ",63,"charlie_dog","delores_gleitman_deceased","slightly more left",2312,"United States",NA,-1
"142","d_us_pilot_A","d_us_pilot_A_2","perceiving_depth",NA,NA,"us",25,"female","yes_only","white","college_bachDegree","christianity_catholic","other","democrat","yes",1,"ASL Interpreter","no","no","no","disagree_strong","agree_moderate","disagree_little","disagree_moderate","I thought it was a good study and I hope my responses are helpful to your results. ",64,"god","kismet_robot","much more left",1080,"United States",NA,-2
"143","d_us_pilot_A","d_us_pilot_A_2","perceiving_depth",NA,NA,"us",25,"female","yes_only","white","college_bachDegree","christianity_catholic","other","democrat","yes",1,"ASL Interpreter","no","no","no","disagree_strong","agree_moderate","disagree_little","disagree_moderate","I thought it was a good study and I hope my responses are helpful to your results. ",65,"green_frog","kismet_robot","slightly more left",1745,"United States",NA,-1
"144","d_us_pilot_A","d_us_pilot_A_2","perceiving_depth",NA,NA,"us",25,"female","yes_only","white","college_bachDegree","christianity_catholic","other","democrat","yes",1,"ASL Interpreter","no","no","no","disagree_strong","agree_moderate","disagree_little","disagree_moderate","I thought it was a good study and I hope my responses are helpful to your results. ",66,"toby_chimp","nicholas_gannon_baby","both equally",2126,"United States",NA,0
"145","d_us_pilot_A","d_us_pilot_A_2","perceiving_depth",NA,NA,"us",25,"female","yes_only","white","college_bachDegree","christianity_catholic","other","democrat","yes",1,"ASL Interpreter","no","no","no","disagree_strong","agree_moderate","disagree_little","disagree_moderate","I thought it was a good study and I hope my responses are helpful to your results. ",67,"charlie_dog","todd_billingsley_man","much more right",2165,"United States",NA,2
"146","d_us_pilot_A","d_us_pilot_A_2","perceiving_depth",NA,NA,"us",25,"female","yes_only","white","college_bachDegree","christianity_catholic","other","democrat","yes",1,"ASL Interpreter","no","no","no","disagree_strong","agree_moderate","disagree_little","disagree_moderate","I thought it was a good study and I hope my responses are helpful to your results. ",68,"toby_chimp","todd_billingsley_man","much more right",1480,"United States",NA,2
"147","d_us_pilot_A","d_us_pilot_A_2","perceiving_depth",NA,NA,"us",25,"female","yes_only","white","college_bachDegree","christianity_catholic","other","democrat","yes",1,"ASL Interpreter","no","no","no","disagree_strong","agree_moderate","disagree_little","disagree_moderate","I thought it was a good study and I hope my responses are helpful to your results. ",69,"delores_gleitman_deceased","nicholas_gannon_baby","slightly more right",1635,"United States",NA,1
"148","d_us_pilot_A","d_us_pilot_A_2","perceiving_depth",NA,NA,"us",25,"female","yes_only","white","college_bachDegree","christianity_catholic","other","democrat","yes",1,"ASL Interpreter","no","no","no","disagree_strong","agree_moderate","disagree_little","disagree_moderate","I thought it was a good study and I hope my responses are helpful to your results. ",70,"delores_gleitman_deceased","fetus","both equally",3177,"United States",NA,0
"149","d_us_pilot_A","d_us_pilot_A_2","perceiving_depth",NA,NA,"us",25,"female","yes_only","white","college_bachDegree","christianity_catholic","other","democrat","yes",1,"ASL Interpreter","no","no","no","disagree_strong","agree_moderate","disagree_little","disagree_moderate","I thought it was a good study and I hope my responses are helpful to your results. ",71,"toby_chimp","fetus","slightly more left",1093,"United States",NA,-1
"150","d_us_pilot_A","d_us_pilot_A_2","perceiving_depth",NA,NA,"us",25,"female","yes_only","white","college_bachDegree","christianity_catholic","other","democrat","yes",1,"ASL Interpreter","no","no","no","disagree_strong","agree_moderate","disagree_little","disagree_moderate","I thought it was a good study and I hope my responses are helpful to your results. ",72,"nicholas_gannon_baby","you","much more right",1571,"United States",NA,2
"151","d_us_pilot_A","d_us_pilot_A_2","perceiving_depth",NA,NA,"us",25,"female","yes_only","white","college_bachDegree","christianity_catholic","other","democrat","yes",1,"ASL Interpreter","no","no","no","disagree_strong","agree_moderate","disagree_little","disagree_moderate","I thought it was a good study and I hope my responses are helpful to your results. ",73,"delores_gleitman_deceased","you","much more right",1253,"United States",NA,2
"152","d_us_pilot_A","d_us_pilot_A_2","perceiving_depth",NA,NA,"us",25,"female","yes_only","white","college_bachDegree","christianity_catholic","other","democrat","yes",1,"ASL Interpreter","no","no","no","disagree_strong","agree_moderate","disagree_little","disagree_moderate","I thought it was a good study and I hope my responses are helpful to your results. ",74,"sharon_harvey_woman","samantha_hill_girl","much more left",1854,"United States",NA,-2
"153","d_us_pilot_A","d_us_pilot_A_2","perceiving_depth",NA,NA,"us",25,"female","yes_only","white","college_bachDegree","christianity_catholic","other","democrat","yes",1,"ASL Interpreter","no","no","no","disagree_strong","agree_moderate","disagree_little","disagree_moderate","I thought it was a good study and I hope my responses are helpful to your results. ",75,"fetus","sharon_harvey_woman","much more right",1284,"United States",NA,2
"154","d_us_pilot_A","d_us_pilot_A_2","perceiving_depth",NA,NA,"us",25,"female","yes_only","white","college_bachDegree","christianity_catholic","other","democrat","yes",1,"ASL Interpreter","no","no","no","disagree_strong","agree_moderate","disagree_little","disagree_moderate","I thought it was a good study and I hope my responses are helpful to your results. ",76,"toby_chimp","god","much more right",1027,"United States",NA,2
"155","d_us_pilot_A","d_us_pilot_A_2","perceiving_depth",NA,NA,"us",25,"female","yes_only","white","college_bachDegree","christianity_catholic","other","democrat","yes",1,"ASL Interpreter","no","no","no","disagree_strong","agree_moderate","disagree_little","disagree_moderate","I thought it was a good study and I hope my responses are helpful to your results. ",77,"sharon_harvey_woman","green_frog","much more left",2165,"United States",NA,-2
"156","d_us_pilot_A","d_us_pilot_A_2","perceiving_depth",NA,NA,"us",25,"female","yes_only","white","college_bachDegree","christianity_catholic","other","democrat","yes",1,"ASL Interpreter","no","no","no","disagree_strong","agree_moderate","disagree_little","disagree_moderate","I thought it was a good study and I hope my responses are helpful to your results. ",78,"nicholas_gannon_baby","fetus","much more left",2227,"United States",NA,-2
"157","d_us_pilot_A","d_us_pilot_A_3","communicating_with_others",NA,NA,"us",24,"male","yes_only","white","hs_diploma","other","other","independent","no",1,"IT","no","yes","no","disagree_strong","agree_little","agree_little","agree_little",NA,1,"nicholas_gannon_baby","you","slightly more right",4484,"United States",NA,1
"158","d_us_pilot_A","d_us_pilot_A_3","communicating_with_others",NA,NA,"us",24,"male","yes_only","white","hs_diploma","other","other","independent","no",1,"IT","no","yes","no","disagree_strong","agree_little","agree_little","agree_little",NA,2,"green_frog","nicholas_gannon_baby","slightly more right",1740,"United States",NA,1
"159","d_us_pilot_A","d_us_pilot_A_3","communicating_with_others",NA,NA,"us",24,"male","yes_only","white","hs_diploma","other","other","independent","no",1,"IT","no","yes","no","disagree_strong","agree_little","agree_little","agree_little",NA,3,"toby_chimp","kismet_robot","slightly more left",3058,"United States",NA,-1
"160","d_us_pilot_A","d_us_pilot_A_3","communicating_with_others",NA,NA,"us",24,"male","yes_only","white","hs_diploma","other","other","independent","no",1,"IT","no","yes","no","disagree_strong","agree_little","agree_little","agree_little",NA,4,"delores_gleitman_deceased","nicholas_gannon_baby","slightly more right",1920,"United States",NA,1
"161","d_us_pilot_A","d_us_pilot_A_3","communicating_with_others",NA,NA,"us",24,"male","yes_only","white","hs_diploma","other","other","independent","no",1,"IT","no","yes","no","disagree_strong","agree_little","agree_little","agree_little",NA,5,"charlie_dog","fetus","slightly more left",1491,"United States",NA,-1
"162","d_us_pilot_A","d_us_pilot_A_3","communicating_with_others",NA,NA,"us",24,"male","yes_only","white","hs_diploma","other","other","independent","no",1,"IT","no","yes","no","disagree_strong","agree_little","agree_little","agree_little",NA,6,"samantha_hill_girl","todd_billingsley_man","slightly more right",1096,"United States",NA,1
"163","d_us_pilot_A","d_us_pilot_A_3","communicating_with_others",NA,NA,"us",24,"male","yes_only","white","hs_diploma","other","other","independent","no",1,"IT","no","yes","no","disagree_strong","agree_little","agree_little","agree_little",NA,7,"fetus","todd_billingsley_man","slightly more right",1864,"United States",NA,1
"164","d_us_pilot_A","d_us_pilot_A_3","communicating_with_others",NA,NA,"us",24,"male","yes_only","white","hs_diploma","other","other","independent","no",1,"IT","no","yes","no","disagree_strong","agree_little","agree_little","agree_little",NA,8,"delores_gleitman_deceased","sharon_harvey_woman","much more right",2375,"United States",NA,2
"165","d_us_pilot_A","d_us_pilot_A_3","communicating_with_others",NA,NA,"us",24,"male","yes_only","white","hs_diploma","other","other","independent","no",1,"IT","no","yes","no","disagree_strong","agree_little","agree_little","agree_little",NA,9,"sharon_harvey_woman","nicholas_gannon_baby","much more left",2863,"United States",NA,-2
"166","d_us_pilot_A","d_us_pilot_A_3","communicating_with_others",NA,NA,"us",24,"male","yes_only","white","hs_diploma","other","other","independent","no",1,"IT","no","yes","no","disagree_strong","agree_little","agree_little","agree_little",NA,10,"todd_billingsley_man","you","much more right",4080,"United States",NA,2
"167","d_us_pilot_A","d_us_pilot_A_3","communicating_with_others",NA,NA,"us",24,"male","yes_only","white","hs_diploma","other","other","independent","no",1,"IT","no","yes","no","disagree_strong","agree_little","agree_little","agree_little",NA,11,"kismet_robot","charlie_dog","much more right",5784,"United States",NA,2
"168","d_us_pilot_A","d_us_pilot_A_3","communicating_with_others",NA,NA,"us",24,"male","yes_only","white","hs_diploma","other","other","independent","no",1,"IT","no","yes","no","disagree_strong","agree_little","agree_little","agree_little",NA,12,"toby_chimp","fetus","much more left",1695,"United States",NA,-2
"169","d_us_pilot_A","d_us_pilot_A_3","communicating_with_others",NA,NA,"us",24,"male","yes_only","white","hs_diploma","other","other","independent","no",1,"IT","no","yes","no","disagree_strong","agree_little","agree_little","agree_little",NA,13,"god","green_frog","much more left",3031,"United States",NA,-2
"170","d_us_pilot_A","d_us_pilot_A_3","communicating_with_others",NA,NA,"us",24,"male","yes_only","white","hs_diploma","other","other","independent","no",1,"IT","no","yes","no","disagree_strong","agree_little","agree_little","agree_little",NA,14,"sharon_harvey_woman","you","much more right",52667,"United States",NA,2
"171","d_us_pilot_A","d_us_pilot_A_3","communicating_with_others",NA,NA,"us",24,"male","yes_only","white","hs_diploma","other","other","independent","no",1,"IT","no","yes","no","disagree_strong","agree_little","agree_little","agree_little",NA,15,"kismet_robot","delores_gleitman_deceased","much more left",3422,"United States",NA,-2
"172","d_us_pilot_A","d_us_pilot_A_3","communicating_with_others",NA,NA,"us",24,"male","yes_only","white","hs_diploma","other","other","independent","no",1,"IT","no","yes","no","disagree_strong","agree_little","agree_little","agree_little",NA,16,"fetus","kismet_robot","much more right",1284,"United States",NA,2
"173","d_us_pilot_A","d_us_pilot_A_3","communicating_with_others",NA,NA,"us",24,"male","yes_only","white","hs_diploma","other","other","independent","no",1,"IT","no","yes","no","disagree_strong","agree_little","agree_little","agree_little",NA,17,"toby_chimp","sharon_harvey_woman","much more left",1813,"United States",NA,-2
"174","d_us_pilot_A","d_us_pilot_A_3","communicating_with_others",NA,NA,"us",24,"male","yes_only","white","hs_diploma","other","other","independent","no",1,"IT","no","yes","no","disagree_strong","agree_little","agree_little","agree_little",NA,18,"god","todd_billingsley_man","much more left",881,"United States",NA,-2
"175","d_us_pilot_A","d_us_pilot_A_3","communicating_with_others",NA,NA,"us",24,"male","yes_only","white","hs_diploma","other","other","independent","no",1,"IT","no","yes","no","disagree_strong","agree_little","agree_little","agree_little",NA,19,"gerald_schiff_pvs","charlie_dog","much more right",2126,"United States",NA,2
"176","d_us_pilot_A","d_us_pilot_A_3","communicating_with_others",NA,NA,"us",24,"male","yes_only","white","hs_diploma","other","other","independent","no",1,"IT","no","yes","no","disagree_strong","agree_little","agree_little","agree_little",NA,20,"gerald_schiff_pvs","fetus","much more left",1426,"United States",NA,-2
"177","d_us_pilot_A","d_us_pilot_A_3","communicating_with_others",NA,NA,"us",24,"male","yes_only","white","hs_diploma","other","other","independent","no",1,"IT","no","yes","no","disagree_strong","agree_little","agree_little","agree_little",NA,21,"kismet_robot","samantha_hill_girl","much more right",2001,"United States",NA,2
"178","d_us_pilot_A","d_us_pilot_A_3","communicating_with_others",NA,NA,"us",24,"male","yes_only","white","hs_diploma","other","other","independent","no",1,"IT","no","yes","no","disagree_strong","agree_little","agree_little","agree_little",NA,22,"sharon_harvey_woman","green_frog","much more left",1423,"United States",NA,-2
"179","d_us_pilot_A","d_us_pilot_A_3","communicating_with_others",NA,NA,"us",24,"male","yes_only","white","hs_diploma","other","other","independent","no",1,"IT","no","yes","no","disagree_strong","agree_little","agree_little","agree_little",NA,23,"kismet_robot","todd_billingsley_man","much more right",1305,"United States",NA,2
"180","d_us_pilot_A","d_us_pilot_A_3","communicating_with_others",NA,NA,"us",24,"male","yes_only","white","hs_diploma","other","other","independent","no",1,"IT","no","yes","no","disagree_strong","agree_little","agree_little","agree_little",NA,24,"toby_chimp","nicholas_gannon_baby","much more left",1988,"United States",NA,-2
"181","d_us_pilot_A","d_us_pilot_A_3","communicating_with_others",NA,NA,"us",24,"male","yes_only","white","hs_diploma","other","other","independent","no",1,"IT","no","yes","no","disagree_strong","agree_little","agree_little","agree_little",NA,25,"todd_billingsley_man","gerald_schiff_pvs","much more left",2527,"United States",NA,-2
"182","d_us_pilot_A","d_us_pilot_A_3","communicating_with_others",NA,NA,"us",24,"male","yes_only","white","hs_diploma","other","other","independent","no",1,"IT","no","yes","no","disagree_strong","agree_little","agree_little","agree_little",NA,26,"green_frog","gerald_schiff_pvs","much more right",1362,"United States",NA,2
"183","d_us_pilot_A","d_us_pilot_A_3","communicating_with_others",NA,NA,"us",24,"male","yes_only","white","hs_diploma","other","other","independent","no",1,"IT","no","yes","no","disagree_strong","agree_little","agree_little","agree_little",NA,27,"charlie_dog","god","much more right",1743,"United States",NA,2
"184","d_us_pilot_A","d_us_pilot_A_3","communicating_with_others",NA,NA,"us",24,"male","yes_only","white","hs_diploma","other","other","independent","no",1,"IT","no","yes","no","disagree_strong","agree_little","agree_little","agree_little",NA,28,"sharon_harvey_woman","god","much more left",2379,"United States",NA,-2
"185","d_us_pilot_A","d_us_pilot_A_3","communicating_with_others",NA,NA,"us",24,"male","yes_only","white","hs_diploma","other","other","independent","no",1,"IT","no","yes","no","disagree_strong","agree_little","agree_little","agree_little",NA,29,"god","nicholas_gannon_baby","much more left",1503,"United States",NA,-2
"186","d_us_pilot_A","d_us_pilot_A_3","communicating_with_others",NA,NA,"us",24,"male","yes_only","white","hs_diploma","other","other","independent","no",1,"IT","no","yes","no","disagree_strong","agree_little","agree_little","agree_little",NA,30,"fetus","delores_gleitman_deceased","much more left",3494,"United States",NA,-2
"187","d_us_pilot_A","d_us_pilot_A_3","communicating_with_others",NA,NA,"us",24,"male","yes_only","white","hs_diploma","other","other","independent","no",1,"IT","no","yes","no","disagree_strong","agree_little","agree_little","agree_little",NA,31,"fetus","green_frog","much more left",1542,"United States",NA,-2
"188","d_us_pilot_A","d_us_pilot_A_3","communicating_with_others",NA,NA,"us",24,"male","yes_only","white","hs_diploma","other","other","independent","no",1,"IT","no","yes","no","disagree_strong","agree_little","agree_little","agree_little",NA,32,"gerald_schiff_pvs","you","much more left",1169,"United States",NA,-2
"189","d_us_pilot_A","d_us_pilot_A_3","communicating_with_others",NA,NA,"us",24,"male","yes_only","white","hs_diploma","other","other","independent","no",1,"IT","no","yes","no","disagree_strong","agree_little","agree_little","agree_little",NA,33,"todd_billingsley_man","nicholas_gannon_baby","much more left",2260,"United States",NA,-2
"190","d_us_pilot_A","d_us_pilot_A_3","communicating_with_others",NA,NA,"us",24,"male","yes_only","white","hs_diploma","other","other","independent","no",1,"IT","no","yes","no","disagree_strong","agree_little","agree_little","agree_little",NA,34,"toby_chimp","gerald_schiff_pvs","much more right",3091,"United States",NA,2
"191","d_us_pilot_A","d_us_pilot_A_3","communicating_with_others",NA,NA,"us",24,"male","yes_only","white","hs_diploma","other","other","independent","no",1,"IT","no","yes","no","disagree_strong","agree_little","agree_little","agree_little",NA,35,"toby_chimp","todd_billingsley_man","slightly more right",50985,"United States",NA,1
"192","d_us_pilot_A","d_us_pilot_A_3","communicating_with_others",NA,NA,"us",24,"male","yes_only","white","hs_diploma","other","other","independent","no",1,"IT","no","yes","no","disagree_strong","agree_little","agree_little","agree_little",NA,36,"samantha_hill_girl","delores_gleitman_deceased","much more left",1798,"United States",NA,-2
"193","d_us_pilot_A","d_us_pilot_A_3","communicating_with_others",NA,NA,"us",24,"male","yes_only","white","hs_diploma","other","other","independent","no",1,"IT","no","yes","no","disagree_strong","agree_little","agree_little","agree_little",NA,37,"you","delores_gleitman_deceased","much more left",1490,"United States",NA,-2
"194","d_us_pilot_A","d_us_pilot_A_3","communicating_with_others",NA,NA,"us",24,"male","yes_only","white","hs_diploma","other","other","independent","no",1,"IT","no","yes","no","disagree_strong","agree_little","agree_little","agree_little",NA,38,"delores_gleitman_deceased","green_frog","much more right",2043,"United States",NA,2
"195","d_us_pilot_A","d_us_pilot_A_3","communicating_with_others",NA,NA,"us",24,"male","yes_only","white","hs_diploma","other","other","independent","no",1,"IT","no","yes","no","disagree_strong","agree_little","agree_little","agree_little",NA,39,"kismet_robot","nicholas_gannon_baby","much more left",2846,"United States",NA,-2
"196","d_us_pilot_A","d_us_pilot_A_3","communicating_with_others",NA,NA,"us",24,"male","yes_only","white","hs_diploma","other","other","independent","no",1,"IT","no","yes","no","disagree_strong","agree_little","agree_little","agree_little",NA,40,"delores_gleitman_deceased","charlie_dog","much more right",1296,"United States",NA,2
"197","d_us_pilot_A","d_us_pilot_A_3","communicating_with_others",NA,NA,"us",24,"male","yes_only","white","hs_diploma","other","other","independent","no",1,"IT","no","yes","no","disagree_strong","agree_little","agree_little","agree_little",NA,41,"delores_gleitman_deceased","toby_chimp","much more right",1006,"United States",NA,2
"198","d_us_pilot_A","d_us_pilot_A_3","communicating_with_others",NA,NA,"us",24,"male","yes_only","white","hs_diploma","other","other","independent","no",1,"IT","no","yes","no","disagree_strong","agree_little","agree_little","agree_little",NA,42,"samantha_hill_girl","toby_chimp","much more left",1784,"United States",NA,-2
"199","d_us_pilot_A","d_us_pilot_A_3","communicating_with_others",NA,NA,"us",24,"male","yes_only","white","hs_diploma","other","other","independent","no",1,"IT","no","yes","no","disagree_strong","agree_little","agree_little","agree_little",NA,43,"gerald_schiff_pvs","delores_gleitman_deceased","much more left",1002,"United States",NA,-2
"200","d_us_pilot_A","d_us_pilot_A_3","communicating_with_others",NA,NA,"us",24,"male","yes_only","white","hs_diploma","other","other","independent","no",1,"IT","no","yes","no","disagree_strong","agree_little","agree_little","agree_little",NA,44,"charlie_dog","toby_chimp","much more left",1672,"United States",NA,-2
"201","d_us_pilot_A","d_us_pilot_A_3","communicating_with_others",NA,NA,"us",24,"male","yes_only","white","hs_diploma","other","other","independent","no",1,"IT","no","yes","no","disagree_strong","agree_little","agree_little","agree_little",NA,45,"samantha_hill_girl","sharon_harvey_woman","much more right",1304,"United States",NA,2
"202","d_us_pilot_A","d_us_pilot_A_3","communicating_with_others",NA,NA,"us",24,"male","yes_only","white","hs_diploma","other","other","independent","no",1,"IT","no","yes","no","disagree_strong","agree_little","agree_little","agree_little",NA,46,"gerald_schiff_pvs","sharon_harvey_woman","much more right",1418,"United States",NA,2
"203","d_us_pilot_A","d_us_pilot_A_3","communicating_with_others",NA,NA,"us",24,"male","yes_only","white","hs_diploma","other","other","independent","no",1,"IT","no","yes","no","disagree_strong","agree_little","agree_little","agree_little",NA,47,"fetus","you","much more right",1358,"United States",NA,2
"204","d_us_pilot_A","d_us_pilot_A_3","communicating_with_others",NA,NA,"us",24,"male","yes_only","white","hs_diploma","other","other","independent","no",1,"IT","no","yes","no","disagree_strong","agree_little","agree_little","agree_little",NA,48,"nicholas_gannon_baby","fetus","much more left",1972,"United States",NA,-2
"205","d_us_pilot_A","d_us_pilot_A_3","communicating_with_others",NA,NA,"us",24,"male","yes_only","white","hs_diploma","other","other","independent","no",1,"IT","no","yes","no","disagree_strong","agree_little","agree_little","agree_little",NA,49,"todd_billingsley_man","delores_gleitman_deceased","much more left",1274,"United States",NA,-2
"206","d_us_pilot_A","d_us_pilot_A_3","communicating_with_others",NA,NA,"us",24,"male","yes_only","white","hs_diploma","other","other","independent","no",1,"IT","no","yes","no","disagree_strong","agree_little","agree_little","agree_little",NA,50,"charlie_dog","nicholas_gannon_baby","much more right",2192,"United States",NA,2
"207","d_us_pilot_A","d_us_pilot_A_3","communicating_with_others",NA,NA,"us",24,"male","yes_only","white","hs_diploma","other","other","independent","no",1,"IT","no","yes","no","disagree_strong","agree_little","agree_little","agree_little",NA,51,"nicholas_gannon_baby","gerald_schiff_pvs","much more right",2033,"United States",NA,2
"208","d_us_pilot_A","d_us_pilot_A_3","communicating_with_others",NA,NA,"us",24,"male","yes_only","white","hs_diploma","other","other","independent","no",1,"IT","no","yes","no","disagree_strong","agree_little","agree_little","agree_little",NA,52,"green_frog","toby_chimp","much more right",2031,"United States",NA,2
"209","d_us_pilot_A","d_us_pilot_A_3","communicating_with_others",NA,NA,"us",24,"male","yes_only","white","hs_diploma","other","other","independent","no",1,"IT","no","yes","no","disagree_strong","agree_little","agree_little","agree_little",NA,53,"god","kismet_robot","much more left",1484,"United States",NA,-2
"210","d_us_pilot_A","d_us_pilot_A_3","communicating_with_others",NA,NA,"us",24,"male","yes_only","white","hs_diploma","other","other","independent","no",1,"IT","no","yes","no","disagree_strong","agree_little","agree_little","agree_little",NA,54,"samantha_hill_girl","fetus","much more left",1008,"United States",NA,-2
"211","d_us_pilot_A","d_us_pilot_A_3","communicating_with_others",NA,NA,"us",24,"male","yes_only","white","hs_diploma","other","other","independent","no",1,"IT","no","yes","no","disagree_strong","agree_little","agree_little","agree_little",NA,55,"fetus","god","much more right",1526,"United States",NA,2
"212","d_us_pilot_A","d_us_pilot_A_3","communicating_with_others",NA,NA,"us",24,"male","yes_only","white","hs_diploma","other","other","independent","no",1,"IT","no","yes","no","disagree_strong","agree_little","agree_little","agree_little",NA,56,"green_frog","samantha_hill_girl","much more right",1588,"United States",NA,2
"213","d_us_pilot_A","d_us_pilot_A_3","communicating_with_others",NA,NA,"us",24,"male","yes_only","white","hs_diploma","other","other","independent","no",1,"IT","no","yes","no","disagree_strong","agree_little","agree_little","agree_little",NA,57,"samantha_hill_girl","charlie_dog","much more left",2704,"United States",NA,-2
"214","d_us_pilot_A","d_us_pilot_A_3","communicating_with_others",NA,NA,"us",24,"male","yes_only","white","hs_diploma","other","other","independent","no",1,"IT","no","yes","no","disagree_strong","agree_little","agree_little","agree_little",NA,58,"samantha_hill_girl","gerald_schiff_pvs","much more right",1708,"United States",NA,2
"215","d_us_pilot_A","d_us_pilot_A_3","communicating_with_others",NA,NA,"us",24,"male","yes_only","white","hs_diploma","other","other","independent","no",1,"IT","no","yes","no","disagree_strong","agree_little","agree_little","agree_little",NA,59,"sharon_harvey_woman","kismet_robot","much more left",1755,"United States",NA,-2
"216","d_us_pilot_A","d_us_pilot_A_3","communicating_with_others",NA,NA,"us",24,"male","yes_only","white","hs_diploma","other","other","independent","no",1,"IT","no","yes","no","disagree_strong","agree_little","agree_little","agree_little",NA,60,"green_frog","charlie_dog","much more right",1430,"United States",NA,2
"217","d_us_pilot_A","d_us_pilot_A_3","communicating_with_others",NA,NA,"us",24,"male","yes_only","white","hs_diploma","other","other","independent","no",1,"IT","no","yes","no","disagree_strong","agree_little","agree_little","agree_little",NA,61,"you","green_frog","much more left",1586,"United States",NA,-2
"218","d_us_pilot_A","d_us_pilot_A_3","communicating_with_others",NA,NA,"us",24,"male","yes_only","white","hs_diploma","other","other","independent","no",1,"IT","no","yes","no","disagree_strong","agree_little","agree_little","agree_little",NA,62,"charlie_dog","todd_billingsley_man","much more left",945,"United States",NA,-2
"219","d_us_pilot_A","d_us_pilot_A_3","communicating_with_others",NA,NA,"us",24,"male","yes_only","white","hs_diploma","other","other","independent","no",1,"IT","no","yes","no","disagree_strong","agree_little","agree_little","agree_little",NA,63,"charlie_dog","you","much more right",1641,"United States",NA,2
"220","d_us_pilot_A","d_us_pilot_A_3","communicating_with_others",NA,NA,"us",24,"male","yes_only","white","hs_diploma","other","other","independent","no",1,"IT","no","yes","no","disagree_strong","agree_little","agree_little","agree_little",NA,64,"sharon_harvey_woman","todd_billingsley_man","much more right",2034,"United States",NA,2
"221","d_us_pilot_A","d_us_pilot_A_3","communicating_with_others",NA,NA,"us",24,"male","yes_only","white","hs_diploma","other","other","independent","no",1,"IT","no","yes","no","disagree_strong","agree_little","agree_little","agree_little",NA,65,"samantha_hill_girl","god","much more right",2184,"United States",NA,2
"222","d_us_pilot_A","d_us_pilot_A_3","communicating_with_others",NA,NA,"us",24,"male","yes_only","white","hs_diploma","other","other","independent","no",1,"IT","no","yes","no","disagree_strong","agree_little","agree_little","agree_little",NA,66,"you","god","much more left",1724,"United States",NA,-2
"223","d_us_pilot_A","d_us_pilot_A_3","communicating_with_others",NA,NA,"us",24,"male","yes_only","white","hs_diploma","other","other","independent","no",1,"IT","no","yes","no","disagree_strong","agree_little","agree_little","agree_little",NA,67,"green_frog","kismet_robot","much more left",1890,"United States",NA,-2
"224","d_us_pilot_A","d_us_pilot_A_3","communicating_with_others",NA,NA,"us",24,"male","yes_only","white","hs_diploma","other","other","independent","no",1,"IT","no","yes","no","disagree_strong","agree_little","agree_little","agree_little",NA,68,"fetus","sharon_harvey_woman","much more right",1213,"United States",NA,2
"225","d_us_pilot_A","d_us_pilot_A_3","communicating_with_others",NA,NA,"us",24,"male","yes_only","white","hs_diploma","other","other","independent","no",1,"IT","no","yes","no","disagree_strong","agree_little","agree_little","agree_little",NA,69,"nicholas_gannon_baby","samantha_hill_girl","much more right",1833,"United States",NA,2
"226","d_us_pilot_A","d_us_pilot_A_3","communicating_with_others",NA,NA,"us",24,"male","yes_only","white","hs_diploma","other","other","independent","no",1,"IT","no","yes","no","disagree_strong","agree_little","agree_little","agree_little",NA,70,"you","toby_chimp","much more left",1227,"United States",NA,-2
"227","d_us_pilot_A","d_us_pilot_A_3","communicating_with_others",NA,NA,"us",24,"male","yes_only","white","hs_diploma","other","other","independent","no",1,"IT","no","yes","no","disagree_strong","agree_little","agree_little","agree_little",NA,71,"kismet_robot","you","much more right",1286,"United States",NA,2
"228","d_us_pilot_A","d_us_pilot_A_3","communicating_with_others",NA,NA,"us",24,"male","yes_only","white","hs_diploma","other","other","independent","no",1,"IT","no","yes","no","disagree_strong","agree_little","agree_little","agree_little",NA,72,"god","delores_gleitman_deceased","much more left",1152,"United States",NA,-2
"229","d_us_pilot_A","d_us_pilot_A_3","communicating_with_others",NA,NA,"us",24,"male","yes_only","white","hs_diploma","other","other","independent","no",1,"IT","no","yes","no","disagree_strong","agree_little","agree_little","agree_little",NA,73,"you","samantha_hill_girl","much more left",1714,"United States",NA,-2
"230","d_us_pilot_A","d_us_pilot_A_3","communicating_with_others",NA,NA,"us",24,"male","yes_only","white","hs_diploma","other","other","independent","no",1,"IT","no","yes","no","disagree_strong","agree_little","agree_little","agree_little",NA,74,"green_frog","todd_billingsley_man","much more right",1584,"United States",NA,2
"231","d_us_pilot_A","d_us_pilot_A_3","communicating_with_others",NA,NA,"us",24,"male","yes_only","white","hs_diploma","other","other","independent","no",1,"IT","no","yes","no","disagree_strong","agree_little","agree_little","agree_little",NA,75,"gerald_schiff_pvs","kismet_robot","slightly more left",2131,"United States",NA,-1
"232","d_us_pilot_A","d_us_pilot_A_3","communicating_with_others",NA,NA,"us",24,"male","yes_only","white","hs_diploma","other","other","independent","no",1,"IT","no","yes","no","disagree_strong","agree_little","agree_little","agree_little",NA,76,"charlie_dog","sharon_harvey_woman","much more right",1374,"United States",NA,2
"233","d_us_pilot_A","d_us_pilot_A_3","communicating_with_others",NA,NA,"us",24,"male","yes_only","white","hs_diploma","other","other","independent","no",1,"IT","no","yes","no","disagree_strong","agree_little","agree_little","agree_little",NA,77,"gerald_schiff_pvs","god","much more left",1290,"United States",NA,-2
"234","d_us_pilot_A","d_us_pilot_A_3","communicating_with_others",NA,NA,"us",24,"male","yes_only","white","hs_diploma","other","other","independent","no",1,"IT","no","yes","no","disagree_strong","agree_little","agree_little","agree_little",NA,78,"toby_chimp","god","much more right",1322,"United States",NA,2
"235","d_us_pilot_A","d_us_pilot_A_4","recognizing_someone",NA,NA,"us",30,"female","yes_only","white","college_bachDegree","none","none","democrat","no",1,"unemployed","no","yes","no","disagree_strong","disagree_moderate","neither","neither",NA,1,"charlie_dog","samantha_hill_girl","slightly more right",6341,"united states",NA,1
"236","d_us_pilot_A","d_us_pilot_A_4","recognizing_someone",NA,NA,"us",30,"female","yes_only","white","college_bachDegree","none","none","democrat","no",1,"unemployed","no","yes","no","disagree_strong","disagree_moderate","neither","neither",NA,2,"samantha_hill_girl","todd_billingsley_man","both equally",2659,"united states",NA,0
"237","d_us_pilot_A","d_us_pilot_A_4","recognizing_someone",NA,NA,"us",30,"female","yes_only","white","college_bachDegree","none","none","democrat","no",1,"unemployed","no","yes","no","disagree_strong","disagree_moderate","neither","neither",NA,3,"gerald_schiff_pvs","green_frog","both equally",9963,"united states",NA,0
"238","d_us_pilot_A","d_us_pilot_A_4","recognizing_someone",NA,NA,"us",30,"female","yes_only","white","college_bachDegree","none","none","democrat","no",1,"unemployed","no","yes","no","disagree_strong","disagree_moderate","neither","neither",NA,4,"god","sharon_harvey_woman","much more right",2677,"united states",NA,2
"239","d_us_pilot_A","d_us_pilot_A_4","recognizing_someone",NA,NA,"us",30,"female","yes_only","white","college_bachDegree","none","none","democrat","no",1,"unemployed","no","yes","no","disagree_strong","disagree_moderate","neither","neither",NA,5,"fetus","todd_billingsley_man","much more right",4402,"united states",NA,2
"240","d_us_pilot_A","d_us_pilot_A_4","recognizing_someone",NA,NA,"us",30,"female","yes_only","white","college_bachDegree","none","none","democrat","no",1,"unemployed","no","yes","no","disagree_strong","disagree_moderate","neither","neither",NA,6,"fetus","you","much more right",4251,"united states",NA,2
"241","d_us_pilot_A","d_us_pilot_A_4","recognizing_someone",NA,NA,"us",30,"female","yes_only","white","college_bachDegree","none","none","democrat","no",1,"unemployed","no","yes","no","disagree_strong","disagree_moderate","neither","neither",NA,7,"samantha_hill_girl","god","much more left",2035,"united states",NA,-2
"242","d_us_pilot_A","d_us_pilot_A_4","recognizing_someone",NA,NA,"us",30,"female","yes_only","white","college_bachDegree","none","none","democrat","no",1,"unemployed","no","yes","no","disagree_strong","disagree_moderate","neither","neither",NA,8,"god","kismet_robot","slightly more right",2985,"united states",NA,1
"243","d_us_pilot_A","d_us_pilot_A_4","recognizing_someone",NA,NA,"us",30,"female","yes_only","white","college_bachDegree","none","none","democrat","no",1,"unemployed","no","yes","no","disagree_strong","disagree_moderate","neither","neither",NA,9,"you","todd_billingsley_man","both equally",3051,"united states",NA,0
"244","d_us_pilot_A","d_us_pilot_A_4","recognizing_someone",NA,NA,"us",30,"female","yes_only","white","college_bachDegree","none","none","democrat","no",1,"unemployed","no","yes","no","disagree_strong","disagree_moderate","neither","neither",NA,10,"green_frog","toby_chimp","much more right",2167,"united states",NA,2
"245","d_us_pilot_A","d_us_pilot_A_4","recognizing_someone",NA,NA,"us",30,"female","yes_only","white","college_bachDegree","none","none","democrat","no",1,"unemployed","no","yes","no","disagree_strong","disagree_moderate","neither","neither",NA,11,"green_frog","fetus","both equally",2885,"united states",NA,0
"246","d_us_pilot_A","d_us_pilot_A_4","recognizing_someone",NA,NA,"us",30,"female","yes_only","white","college_bachDegree","none","none","democrat","no",1,"unemployed","no","yes","no","disagree_strong","disagree_moderate","neither","neither",NA,12,"nicholas_gannon_baby","sharon_harvey_woman","slightly more right",5678,"united states",NA,1
"247","d_us_pilot_A","d_us_pilot_A_4","recognizing_someone",NA,NA,"us",30,"female","yes_only","white","college_bachDegree","none","none","democrat","no",1,"unemployed","no","yes","no","disagree_strong","disagree_moderate","neither","neither",NA,13,"nicholas_gannon_baby","kismet_robot","slightly more left",2445,"united states",NA,-1
"248","d_us_pilot_A","d_us_pilot_A_4","recognizing_someone",NA,NA,"us",30,"female","yes_only","white","college_bachDegree","none","none","democrat","no",1,"unemployed","no","yes","no","disagree_strong","disagree_moderate","neither","neither",NA,14,"kismet_robot","fetus","slightly more left",4735,"united states",NA,-1
"249","d_us_pilot_A","d_us_pilot_A_4","recognizing_someone",NA,NA,"us",30,"female","yes_only","white","college_bachDegree","none","none","democrat","no",1,"unemployed","no","yes","no","disagree_strong","disagree_moderate","neither","neither",NA,15,"delores_gleitman_deceased","gerald_schiff_pvs","both equally",6773,"united states",NA,0
"250","d_us_pilot_A","d_us_pilot_A_4","recognizing_someone",NA,NA,"us",30,"female","yes_only","white","college_bachDegree","none","none","democrat","no",1,"unemployed","no","yes","no","disagree_strong","disagree_moderate","neither","neither",NA,16,"sharon_harvey_woman","gerald_schiff_pvs","much more left",2615,"united states",NA,-2
"251","d_us_pilot_A","d_us_pilot_A_4","recognizing_someone",NA,NA,"us",30,"female","yes_only","white","college_bachDegree","none","none","democrat","no",1,"unemployed","no","yes","no","disagree_strong","disagree_moderate","neither","neither",NA,17,"sharon_harvey_woman","delores_gleitman_deceased","much more left",1147,"united states",NA,-2
"252","d_us_pilot_A","d_us_pilot_A_4","recognizing_someone",NA,NA,"us",30,"female","yes_only","white","college_bachDegree","none","none","democrat","no",1,"unemployed","no","yes","no","disagree_strong","disagree_moderate","neither","neither",NA,18,"green_frog","todd_billingsley_man","much more right",1419,"united states",NA,2
"253","d_us_pilot_A","d_us_pilot_A_4","recognizing_someone",NA,NA,"us",30,"female","yes_only","white","college_bachDegree","none","none","democrat","no",1,"unemployed","no","yes","no","disagree_strong","disagree_moderate","neither","neither",NA,19,"you","green_frog","much more left",1249,"united states",NA,-2
"254","d_us_pilot_A","d_us_pilot_A_4","recognizing_someone",NA,NA,"us",30,"female","yes_only","white","college_bachDegree","none","none","democrat","no",1,"unemployed","no","yes","no","disagree_strong","disagree_moderate","neither","neither",NA,20,"kismet_robot","toby_chimp","much more right",2435,"united states",NA,2
"255","d_us_pilot_A","d_us_pilot_A_4","recognizing_someone",NA,NA,"us",30,"female","yes_only","white","college_bachDegree","none","none","democrat","no",1,"unemployed","no","yes","no","disagree_strong","disagree_moderate","neither","neither",NA,21,"nicholas_gannon_baby","god","much more left",1410,"united states",NA,-2
"256","d_us_pilot_A","d_us_pilot_A_4","recognizing_someone",NA,NA,"us",30,"female","yes_only","white","college_bachDegree","none","none","democrat","no",1,"unemployed","no","yes","no","disagree_strong","disagree_moderate","neither","neither",NA,22,"delores_gleitman_deceased","samantha_hill_girl","much more right",1441,"united states",NA,2
"257","d_us_pilot_A","d_us_pilot_A_4","recognizing_someone",NA,NA,"us",30,"female","yes_only","white","college_bachDegree","none","none","democrat","no",1,"unemployed","no","yes","no","disagree_strong","disagree_moderate","neither","neither",NA,23,"toby_chimp","samantha_hill_girl","much more right",1372,"united states",NA,2
"258","d_us_pilot_A","d_us_pilot_A_4","recognizing_someone",NA,NA,"us",30,"female","yes_only","white","college_bachDegree","none","none","democrat","no",1,"unemployed","no","yes","no","disagree_strong","disagree_moderate","neither","neither",NA,24,"nicholas_gannon_baby","gerald_schiff_pvs","slightly more left",3655,"united states",NA,-1
"259","d_us_pilot_A","d_us_pilot_A_4","recognizing_someone",NA,NA,"us",30,"female","yes_only","white","college_bachDegree","none","none","democrat","no",1,"unemployed","no","yes","no","disagree_strong","disagree_moderate","neither","neither",NA,25,"charlie_dog","sharon_harvey_woman","slightly more right",3462,"united states",NA,1
"260","d_us_pilot_A","d_us_pilot_A_4","recognizing_someone",NA,NA,"us",30,"female","yes_only","white","college_bachDegree","none","none","democrat","no",1,"unemployed","no","yes","no","disagree_strong","disagree_moderate","neither","neither",NA,26,"kismet_robot","charlie_dog","both equally",3347,"united states",NA,0
"261","d_us_pilot_A","d_us_pilot_A_4","recognizing_someone",NA,NA,"us",30,"female","yes_only","white","college_bachDegree","none","none","democrat","no",1,"unemployed","no","yes","no","disagree_strong","disagree_moderate","neither","neither",NA,27,"kismet_robot","gerald_schiff_pvs","much more left",1896,"united states",NA,-2
"262","d_us_pilot_A","d_us_pilot_A_4","recognizing_someone",NA,NA,"us",30,"female","yes_only","white","college_bachDegree","none","none","democrat","no",1,"unemployed","no","yes","no","disagree_strong","disagree_moderate","neither","neither",NA,28,"nicholas_gannon_baby","fetus","slightly more left",4094,"united states",NA,-1
"263","d_us_pilot_A","d_us_pilot_A_4","recognizing_someone",NA,NA,"us",30,"female","yes_only","white","college_bachDegree","none","none","democrat","no",1,"unemployed","no","yes","no","disagree_strong","disagree_moderate","neither","neither",NA,29,"fetus","toby_chimp","slightly more right",3647,"united states",NA,1
"264","d_us_pilot_A","d_us_pilot_A_4","recognizing_someone",NA,NA,"us",30,"female","yes_only","white","college_bachDegree","none","none","democrat","no",1,"unemployed","no","yes","no","disagree_strong","disagree_moderate","neither","neither",NA,30,"nicholas_gannon_baby","todd_billingsley_man","much more right",3098,"united states",NA,2
"265","d_us_pilot_A","d_us_pilot_A_4","recognizing_someone",NA,NA,"us",30,"female","yes_only","white","college_bachDegree","none","none","democrat","no",1,"unemployed","no","yes","no","disagree_strong","disagree_moderate","neither","neither",NA,31,"fetus","gerald_schiff_pvs","both equally",4589,"united states",NA,0
"266","d_us_pilot_A","d_us_pilot_A_4","recognizing_someone",NA,NA,"us",30,"female","yes_only","white","college_bachDegree","none","none","democrat","no",1,"unemployed","no","yes","no","disagree_strong","disagree_moderate","neither","neither",NA,32,"todd_billingsley_man","delores_gleitman_deceased","much more left",1203,"united states",NA,-2
"267","d_us_pilot_A","d_us_pilot_A_4","recognizing_someone",NA,NA,"us",30,"female","yes_only","white","college_bachDegree","none","none","democrat","no",1,"unemployed","no","yes","no","disagree_strong","disagree_moderate","neither","neither",NA,33,"nicholas_gannon_baby","you","much more right",1859,"united states",NA,2
"268","d_us_pilot_A","d_us_pilot_A_4","recognizing_someone",NA,NA,"us",30,"female","yes_only","white","college_bachDegree","none","none","democrat","no",1,"unemployed","no","yes","no","disagree_strong","disagree_moderate","neither","neither",NA,34,"delores_gleitman_deceased","charlie_dog","much more right",1315,"united states",NA,2
"269","d_us_pilot_A","d_us_pilot_A_4","recognizing_someone",NA,NA,"us",30,"female","yes_only","white","college_bachDegree","none","none","democrat","no",1,"unemployed","no","yes","no","disagree_strong","disagree_moderate","neither","neither",NA,35,"charlie_dog","todd_billingsley_man","slightly more right",3557,"united states",NA,1
"270","d_us_pilot_A","d_us_pilot_A_4","recognizing_someone",NA,NA,"us",30,"female","yes_only","white","college_bachDegree","none","none","democrat","no",1,"unemployed","no","yes","no","disagree_strong","disagree_moderate","neither","neither",NA,36,"todd_billingsley_man","kismet_robot","much more left",2343,"united states",NA,-2
"271","d_us_pilot_A","d_us_pilot_A_4","recognizing_someone",NA,NA,"us",30,"female","yes_only","white","college_bachDegree","none","none","democrat","no",1,"unemployed","no","yes","no","disagree_strong","disagree_moderate","neither","neither",NA,37,"green_frog","nicholas_gannon_baby","much more right",1426,"united states",NA,2
